#Collected Data-22
#Intensity_unit=counts
#Attenuator_coefficient=1.000000
40.0000 0.0000
40.0100 0.0000
40.0200 0.0000
40.0300 0.0000
40.0400 0.0000
40.0500 0.0194
40.0600 1.1131
40.0700 1.5492
40.0800 2.3355
40.0900 2.2312
40.1000 0.4707
40.1100 1.7905
40.1200 0.4354
40.1300 1.0145
40.1400 0.0000
40.1500 6.0305
40.1600 1.0066
40.1700 0.1531
40.1800 2.3977
40.1900 2.1819
40.2000 2.2754
40.2100 1.1786
40.2200 0.0000
40.2300 0.7805
40.2400 1.9059
40.2500 1.4459
40.2600 0.0000
40.2700 1.1740
40.2800 2.0746
40.2900 2.1060
40.3000 0.7126
40.3100 0.0000
40.3200 0.0000
40.3300 0.9473
40.3400 0.7859
40.3500 1.0721
40.3600 0.1434
40.3700 0.0388
40.3800 1.8826
40.3900 0.2151
40.4000 0.7259
40.4100 0.4252
40.4200 0.5936
40.4300 0.0000
40.4400 1.4225
40.4500 0.6080
40.4600 0.9574
40.4700 0.0000
40.4800 0.0000
40.4900 0.1782
40.5000 0.8546
40.5100 0.3576
40.5200 0.6321
40.5300 2.0590
40.5400 0.9073
40.5500 1.8057
40.5600 0.2772
40.5700 1.0795
40.5800 2.0064
40.5900 0.0000
40.6000 0.0000
40.6100 0.9487
40.6200 0.3809
40.6300 2.0249
40.6400 0.5123
40.6500 1.0344
40.6600 0.0000
40.6700 0.8857
40.6800 1.1568
40.6900 1.0017
40.7000 0.0000
40.7100 0.0000
40.7200 0.0000
40.7300 0.0000
40.7400 0.5099
40.7500 3.0415
40.7600 2.0977
40.7700 1.1361
40.7800 1.3163
40.7900 0.0043
40.8000 0.9746
40.8100 0.1897
40.8200 1.7807
40.8300 0.9868
40.8400 2.5046
40.8500 0.5305
40.8600 0.0000
40.8700 0.0000
40.8800 0.0000
40.8900 0.9788
40.9000 0.0000
40.9100 1.0001
40.9200 0.0000
40.9300 0.3071
40.9400 2.6148
40.9500 0.0000
40.9600 0.0000
40.9700 0.0000
40.9800 0.0000
40.9900 3.0081
41.0000 1.0634
41.0100 1.0194
41.0200 1.0598
41.0300 1.3093
41.0400 0.7750
41.0500 0.0000
41.0600 0.0000
41.0700 1.9055
41.0800 1.0378
41.0900 0.9813
41.1000 0.9881
41.1100 0.0000
41.1200 0.1144
41.1300 0.8439
41.1400 0.0000
41.1500 0.0000
41.1600 1.0058
41.1700 2.9452
41.1800 1.7221
41.1900 1.1338
41.2000 3.0065
41.2100 2.1631
41.2200 0.9891
41.2300 0.0000
41.2400 0.0000
41.2500 0.6956
41.2600 1.3120
41.2700 2.8831
41.2800 0.9305
41.2900 0.6734
41.3000 2.2972
41.3100 1.0079
41.3200 1.9669
41.3300 1.0466
41.3400 0.8804
41.3500 0.0000
41.3600 0.9535
41.3700 0.9610
41.3800 0.0000
41.3900 0.0000
41.4000 0.0000
41.4100 0.0000
41.4200 0.9548
41.4300 0.0423
41.4400 0.8865
41.4500 2.2475
41.4600 1.1270
41.4700 0.6658
41.4800 0.9836
41.4900 0.9450
41.5000 1.7124
41.5100 2.1451
41.5200 0.2149
41.5300 0.0000
41.5400 0.0000
41.5500 0.1934
41.5600 1.8391
41.5700 0.3793
41.5800 0.6538
41.5900 0.0000
41.6000 3.0715
41.6100 0.0000
41.6200 0.0000
41.6300 0.0000
41.6400 0.9637
41.6500 0.0000
41.6600 2.0265
41.6700 0.3244
41.6800 1.1179
41.6900 1.5632
41.7000 0.5939
41.7100 3.3501
41.7200 1.0265
41.7300 0.0000
41.7400 0.9679
41.7500 2.0078
41.7600 0.0000
41.7700 0.0000
41.7800 0.9947
41.7900 0.0000
41.8000 0.9612
41.8100 2.3349
41.8200 0.7371
41.8300 0.0000
41.8400 0.0000
41.8500 0.0000
41.8600 0.2150
41.8700 2.0372
41.8800 1.7423
41.8900 0.7640
41.9000 1.6677
41.9100 0.4955
41.9200 0.0000
41.9300 0.0000
41.9400 0.8584
41.9500 2.1129
41.9600 0.0000
41.9700 0.0000
41.9800 0.2312
41.9900 1.7126
42.0000 0.4375
42.0100 0.5893
42.0200 3.2381
42.0300 1.4320
42.0400 0.2744
42.0500 2.0513
42.0600 1.0761
42.0700 0.0000
42.0800 0.0000
42.0900 0.0000
42.1000 0.0000
42.1100 0.0000
42.1200 0.9470
42.1300 0.0000
42.1400 0.0000
42.1500 0.0000
42.1600 1.1014
42.1700 2.0118
42.1800 0.0000
42.1900 0.9721
42.2000 0.0000
42.2100 2.3896
42.2200 0.6086
42.2300 2.0813
42.2400 0.0000
42.2500 0.0000
42.2600 0.0000
42.2700 2.8894
42.2800 0.0000
42.2900 0.3175
42.3000 1.6243
42.3100 0.3433
42.3200 0.6312
42.3300 0.0000
42.3400 0.0000
42.3500 0.0000
42.3600 0.0000
42.3700 0.0000
42.3800 0.0000
42.3900 0.0000
42.4000 1.9101
42.4100 0.0000
42.4200 0.0000
42.4300 1.0048
42.4400 0.0000
42.4500 0.0000
42.4600 0.7283
42.4700 0.2198
42.4800 1.0190
42.4900 0.0458
42.5000 0.9127
42.5100 0.0000
42.5200 0.6391
42.5300 2.1047
42.5400 1.1097
42.5500 1.0136
42.5600 1.6729
42.5700 0.2836
42.5800 0.9977
42.5900 1.9333
42.6000 1.0652
42.6100 1.9254
42.6200 0.0000
42.6300 0.0000
42.6400 0.9582
42.6500 0.0000
42.6600 0.0000
42.6700 0.0000
42.6800 0.0000
42.6900 0.0000
42.7000 1.1069
42.7100 0.0000
42.7200 0.0000
42.7300 0.3139
42.7400 0.6769
42.7500 0.0000
42.7600 0.0000
42.7700 1.4346
42.7800 0.6313
42.7900 0.8493
42.8000 2.0683
42.8100 1.0631
42.8200 0.0000
42.8300 0.5155
42.8400 2.4465
42.8500 0.0000
42.8600 2.5078
42.8700 0.4333
42.8800 0.0000
42.8900 0.0000
42.9000 0.0000
42.9100 0.0000
42.9200 0.0000
42.9300 0.0000
42.9400 0.0000
42.9500 0.0000
42.9600 0.0000
42.9700 1.1342
42.9800 0.8135
42.9900 0.0000
43.0000 0.9832
43.0100 0.9347
43.0200 0.0526
43.0300 0.9158
43.0400 0.2533
43.0500 0.7888
43.0600 0.0000
43.0700 0.9353
43.0800 0.6243
43.0900 2.0605
43.1000 0.2912
43.1100 0.0000
43.1200 3.9551
43.1300 0.9705
43.1400 0.0000
43.1500 0.0000
43.1600 0.0000
43.1700 0.9582
43.1800 1.1267
43.1900 0.8689
43.2000 0.0000
43.2100 0.0000
43.2200 1.0919
43.2300 0.0357
43.2400 0.9395
43.2500 0.0000
43.2600 0.6423
43.2700 2.3325
43.2800 1.0047
43.2900 0.9904
43.3000 0.9820
43.3100 1.0372
43.3200 0.0000
43.3300 1.9548
43.3400 2.0666
43.3500 0.8983
43.3600 0.2565
43.3700 1.6731
43.3800 0.0000
43.3900 0.0000
43.4000 1.2950
43.4100 2.2258
43.4200 2.1665
43.4300 1.3302
43.4400 0.0000
43.4500 0.0000
43.4600 0.0000
43.4700 0.0000
43.4800 0.0000
43.4900 0.4877
43.5000 1.5074
43.5100 1.6731
43.5200 1.0700
43.5300 0.2203
43.5400 0.9369
43.5500 0.0362
43.5600 1.0003
43.5700 1.0035
43.5800 0.0000
43.5900 0.0000
43.6000 0.0000
43.6100 0.6081
43.6200 3.0554
43.6300 0.7770
43.6400 0.1795
43.6500 0.9866
43.6600 1.0102
43.6700 0.1734
43.6800 2.2935
43.6900 2.7593
43.7000 0.5906
43.7100 0.9788
43.7200 0.0000
43.7300 1.4301
43.7400 1.4374
43.7500 0.0000
43.7600 0.0000
43.7700 0.0000
43.7800 0.0000
43.7900 0.0000
43.8000 1.0405
43.8100 0.0882
43.8200 1.8921
43.8300 1.2310
43.8400 0.0000
43.8500 0.0000
43.8600 1.9529
43.8700 0.0170
43.8800 0.0000
43.8900 0.0000
43.9000 0.0000
43.9100 0.0000
43.9200 0.0000
43.9300 1.8859
43.9400 3.8312
43.9500 0.2621
43.9600 0.9102
43.9700 1.1170
43.9800 0.1199
43.9900 1.1140
44.0000 1.7426
44.0100 0.7964
44.0200 1.1979
44.0300 0.9523
44.0400 0.6978
44.0500 3.8461
44.0600 1.3637
44.0700 0.9690
44.0800 1.0927
44.0900 0.9082
44.1000 0.0000
44.1100 0.9849
44.1200 0.0000
44.1300 0.0000
44.1400 0.6308
44.1500 1.0907
44.1600 2.1215
44.1700 3.0609
44.1800 1.0880
44.1900 0.0963
44.2000 0.8818
44.2100 0.0000
44.2200 1.3894
44.2300 0.6115
44.2400 0.0000
44.2500 0.0000
44.2600 0.0000
44.2700 4.2290
44.2800 2.7258
44.2900 0.0952
44.3000 2.1700
44.3100 0.8337
44.3200 1.2868
44.3300 2.6001
44.3400 0.0000
44.3500 0.0000
44.3600 0.6953
44.3700 2.0944
44.3800 1.9305
44.3900 3.1146
44.4000 1.0955
44.4100 5.5059
44.4200 4.6960
44.4300 1.7763
44.4400 3.2211
44.4500 4.5498
44.4600 5.8659
44.4700 8.7560
44.4800 2.8999
44.4900 10.0472
44.5000 10.4873
44.5100 11.4290
44.5200 15.9417
44.5300 14.5686
44.5400 14.6588
44.5500 9.6591
44.5600 17.6410
44.5700 14.7593
44.5800 16.7152
44.5900 13.6976
44.6000 15.2521
44.6100 14.4232
44.6200 9.0093
44.6300 9.7295
44.6400 11.3068
44.6500 4.1066
44.6600 8.5977
44.6700 8.3545
44.6800 3.0588
44.6900 5.6030
44.7000 8.0058
44.7100 8.2652
44.7200 7.1057
44.7300 4.0586
44.7400 2.1063
44.7500 4.4671
44.7600 2.8277
44.7700 2.6675
44.7800 0.0000
44.7900 1.7032
44.8000 1.9250
44.8100 0.2837
44.8200 3.0213
44.8300 2.1672
44.8400 2.1392
44.8500 2.3382
44.8600 0.6993
44.8700 1.9964
44.8800 3.1238
44.8900 0.7547
44.9000 3.6945
44.9100 1.0588
44.9200 1.1741
44.9300 0.0889
44.9400 0.9739
44.9500 0.5550
44.9600 2.4939
44.9700 0.4545
44.9800 0.5309
44.9900 0.0000
45.0000 0.9918
45.0100 0.0000
45.0200 0.9543
45.0300 1.0880
45.0400 0.9827
45.0500 0.0000
45.0600 2.3424
45.0700 1.6688
45.0800 1.4918
45.0900 1.5786
45.1000 1.6380
45.1100 0.3151
45.1200 0.9064
45.1300 0.1270
45.1400 1.0200
45.1500 0.0000
45.1600 0.0000
45.1700 0.0000
45.1800 0.9828
45.1900 0.9953
45.2000 2.0215
45.2100 0.0000
45.2200 0.1187
45.2300 2.1317
45.2400 1.9628
45.2500 0.0000
45.2600 1.4928
45.2700 1.5941
45.2800 0.0000
45.2900 0.9961
45.3000 0.3534
45.3100 0.0000
45.3200 0.7069
45.3300 0.0000
45.3400 0.0000
45.3500 0.0000
45.3600 0.1464
45.3700 0.8805
45.3800 0.0000
45.3900 0.0000
45.4000 0.0000
45.4100 0.0000
45.4200 1.0206
45.4300 2.6702
45.4400 1.4276
45.4500 4.9090
45.4600 0.0390
45.4700 1.0403
45.4800 0.0000
45.4900 0.9291
45.5000 0.4559
45.5100 1.4952
45.5200 1.6809
45.5300 0.3399
45.5400 0.0000
45.5500 0.0000
45.5600 1.0349
45.5700 0.1240
45.5800 1.8399
45.5900 0.3033
45.6000 0.6637
45.6100 0.0000
45.6200 1.2370
45.6300 0.8356
45.6400 0.9714
45.6500 0.0000
45.6600 2.9035
45.6700 0.1469
45.6800 0.9556
45.6900 2.0954
45.7000 0.3546
45.7100 0.6528
45.7200 0.9823
45.7300 0.0000
45.7400 0.7507
45.7500 1.0803
45.7600 0.1714
45.7700 0.9827
45.7800 2.1138
45.7900 0.9736
45.8000 0.0000
45.8100 0.0000
45.8200 0.0000
45.8300 0.5969
45.8400 0.4338
45.8500 1.0356
45.8600 0.0000
45.8700 0.0000
45.8800 1.1520
45.8900 0.1699
45.9000 0.9980
45.9100 0.0000
45.9200 0.0000
45.9300 0.0000
45.9400 0.9629
45.9500 0.0000
45.9600 0.0000
45.9700 0.0000
45.9800 0.1681
45.9900 0.1912
46.0000 2.9617
46.0100 1.2797
46.0200 0.8232
46.0300 0.0000
46.0400 0.0000
46.0500 0.0000
46.0600 0.0000
46.0700 0.0000
46.0800 2.8802
46.0900 0.0000
46.1000 0.1300
46.1100 1.3370
46.1200 1.5725
46.1300 0.0000
46.1400 0.9961
46.1500 0.9658
46.1600 0.0000
46.1700 0.8008
46.1800 1.3164
46.1900 0.0000
46.2000 1.0115
46.2100 0.0000
46.2200 0.0000
46.2300 0.9876
46.2400 0.0000
46.2500 0.0000
46.2600 0.0000
46.2700 1.9052
46.2800 1.8357
46.2900 0.1722
46.3000 0.0000
46.3100 0.1126
46.3200 0.9105
46.3300 0.0000
46.3400 0.0000
46.3500 0.0000
46.3600 2.0519
46.3700 0.6815
46.3800 1.0807
46.3900 1.1807
46.4000 0.0000
46.4100 1.0071
46.4200 0.0000
46.4300 0.0000
46.4400 0.0000
46.4500 0.0000
46.4600 0.0000
46.4700 0.0000
46.4800 0.9902
46.4900 0.8006
46.5000 0.1888
46.5100 0.0000
46.5200 0.0000
46.5300 0.0000
46.5400 0.0000
46.5500 0.3913
46.5600 0.6508
46.5700 1.9978
46.5800 0.0000
46.5900 0.0000
46.6000 0.0000
46.6100 0.0000
46.6200 0.9679
46.6300 1.1148
46.6400 0.8679
46.6500 1.0604
46.6600 0.0000
46.6700 0.0000
46.6800 0.0000
46.6900 0.9657
46.7000 0.0000
46.7100 0.9577
46.7200 1.0771
46.7300 0.0701
46.7400 2.0486
46.7500 2.9338
46.7600 0.0000
46.7700 0.5753
46.7800 0.5442
46.7900 0.6239
46.8000 0.3495
46.8100 0.8633
46.8200 1.9562
46.8300 2.1330
46.8400 0.9760
46.8500 0.0000
46.8600 0.9998
46.8700 0.0000
46.8800 0.9858
46.8900 0.0000
46.9000 0.0000
46.9100 0.7868
46.9200 0.2301
46.9300 0.0000
46.9400 0.0543
46.9500 1.0553
46.9600 2.0409
46.9700 1.0501
46.9800 0.6472
46.9900 0.0000
47.0000 0.6024
47.0100 0.3641
47.0200 0.0000
47.0300 1.0363
47.0400 0.0008
47.0500 0.9900
47.0600 0.0000
47.0700 0.2924
47.0800 0.7372
47.0900 1.1395
47.1000 0.9860
47.1100 3.4573
47.1200 3.2220
47.1300 1.4786
47.1400 0.9386
47.1500 2.0024
47.1600 0.2675
47.1700 2.7226
47.1800 0.9922
47.1900 0.0000
47.2000 1.4359
47.2100 0.4739
47.2200 0.7078
47.2300 1.9369
47.2400 2.5083
47.2500 0.9780
47.2600 0.0896
47.2700 0.8670
47.2800 0.0000
47.2900 0.0000
47.3000 0.0000
47.3100 0.0000
47.3200 0.0000
47.3300 0.0000
47.3400 0.0000
47.3500 0.0000
47.3600 0.9757
47.3700 0.2285
47.3800 1.7442
47.3900 0.3073
47.4000 0.7015
47.4100 0.0000
47.4200 2.7130
47.4300 1.8787
47.4400 0.3097
47.4500 1.0182
47.4600 2.5204
47.4700 0.2579
47.4800 2.1943
47.4900 0.0000
47.5000 0.3281
47.5100 3.9965
47.5200 0.5379
47.5300 0.0000
47.5400 2.2785
47.5500 6.6673
47.5600 2.3147
47.5700 1.0047
47.5800 3.2953
47.5900 4.6604
47.6000 0.8551
47.6100 3.3183
47.6200 2.8612
47.6300 2.0020
47.6400 1.0338
47.6500 0.7549
47.6600 0.2399
47.6700 1.8748
47.6800 0.0515
47.6900 1.1404
47.7000 1.3710
47.7100 3.5394
47.7200 0.0000
47.7300 2.4565
47.7400 0.4713
47.7500 3.5836
47.7600 1.1414
47.7700 1.1619
47.7800 0.9724
47.7900 2.0407
47.8000 0.5033
47.8100 2.6496
47.8200 1.7130
47.8300 0.4477
47.8400 1.5136
47.8500 0.0000
47.8600 1.7767
47.8700 0.5305
47.8800 0.0520
47.8900 1.6769
47.9000 0.1230
47.9100 0.9132
47.9200 1.0940
47.9300 0.3905
47.9400 2.0985
47.9500 1.1309
47.9600 2.0793
47.9700 1.0877
47.9800 1.2324
47.9900 1.9816
48.0000 0.0308
48.0100 0.0000
48.0200 0.4814
48.0300 2.4329
48.0400 0.0000
48.0500 0.0000
48.0600 0.0000
48.0700 0.0000
48.0800 0.0000
48.0900 0.0000
48.1000 0.0000
48.1100 0.0000
48.1200 0.9945
48.1300 0.0000
48.1400 0.0000
48.1500 0.9542
48.1600 0.5620
48.1700 0.4188
48.1800 0.7775
48.1900 0.2431
48.2000 0.9645
48.2100 0.0502
48.2200 0.0000
48.2300 0.2281
48.2400 1.0627
48.2500 0.6452
48.2600 1.0005
48.2700 0.0000
48.2800 0.9931
48.2900 0.0000
48.3000 0.0000
48.3100 0.0000
48.3200 1.9799
48.3300 1.0242
48.3400 0.0000
48.3500 0.0000
48.3600 1.0289
48.3700 0.9687
48.3800 0.0000
48.3900 0.0000
48.4000 0.0000
48.4100 0.0000
48.4200 0.0000
48.4300 0.1184
48.4400 0.8553
48.4500 1.0093
48.4600 0.9960
48.4700 0.0000
48.4800 0.0000
48.4900 0.0000
48.5000 0.8496
48.5100 0.2363
48.5200 0.0000
48.5300 0.0000
48.5400 1.5059
48.5500 0.8982
48.5600 0.6526
48.5700 0.0000
48.5800 0.0000
48.5900 1.5549
48.6000 0.3589
48.6100 1.0095
48.6200 2.9322
48.6300 1.1702
48.6400 0.2032
48.6500 1.7522
48.6600 0.0000
48.6700 1.4084
48.6800 0.6080
48.6900 0.5639
48.7000 0.4153
48.7100 0.0000
48.7200 0.0000
48.7300 1.9707
48.7400 1.1692
48.7500 2.6147
48.7600 1.1948
48.7700 2.0789
48.7800 0.9455
48.7900 0.0000
48.8000 0.0000
48.8100 0.0000
48.8200 0.0000
48.8300 0.0000
48.8400 0.9725
48.8500 0.0000
48.8600 0.0000
48.8700 1.1012
48.8800 0.0000
48.8900 0.4457
48.9000 0.5154
48.9100 1.9359
48.9200 0.0000
48.9300 0.0000
48.9400 0.0000
48.9500 2.0900
48.9600 2.1656
48.9700 0.0000
48.9800 0.0000
48.9900 0.0000
49.0000 0.0000
49.0100 0.0000
49.0200 0.0000
49.0300 0.0000
49.0400 0.0000
49.0500 0.0000
49.0600 1.9933
49.0700 1.1381
49.0800 0.0000
49.0900 0.0000
49.1000 0.7012
49.1100 0.0000
49.1200 0.0000
49.1300 0.0000
49.1400 1.0817
49.1500 0.9073
49.1600 0.0932
49.1700 1.9416
49.1800 0.0000
49.1900 0.0000
49.2000 0.3835
49.2100 1.0742
49.2200 1.0798
49.2300 0.4184
49.2400 0.0000
49.2500 0.0000
49.2600 0.9100
49.2700 0.0415
49.2800 0.2812
49.2900 2.8709
49.3000 0.7273
49.3100 0.4389
49.3200 0.5858
49.3300 0.0000
49.3400 0.0000
49.3500 0.0000
49.3600 0.0000
49.3700 0.0000
49.3800 1.9834
49.3900 0.2106
49.4000 0.9371
49.4100 0.0000
49.4200 0.0000
49.4300 0.0000
49.4400 0.0000
49.4500 0.7788
49.4600 1.2054
49.4700 1.0131
49.4800 1.9373
49.4900 0.0000
49.5000 0.0000
49.5100 0.0000
49.5200 1.0063
49.5300 0.5230
49.5400 1.5107
49.5500 0.2186
49.5600 1.0869
49.5700 1.5565
49.5800 0.0740
49.5900 0.0711
49.6000 1.2609
49.6100 2.2245
49.6200 1.5092
49.6300 0.9583
49.6400 0.5478
49.6500 0.4604
49.6600 0.0000
49.6700 0.0000
49.6800 0.0000
49.6900 0.0000
49.7000 0.0000
49.7100 0.2011
49.7200 0.7842
49.7300 0.0000
49.7400 0.4953
49.7500 1.4868
49.7600 1.7592
49.7700 0.3410
49.7800 0.8390
49.7900 0.1311
49.8000 0.0000
49.8100 0.0000
49.8200 0.0000
49.8300 0.0000
49.8400 1.4117
49.8500 1.0631
49.8600 0.4493
49.8700 0.0000
49.8800 0.0000
49.8900 0.0000
49.9000 0.0000
49.9100 2.0593
49.9200 0.8870
49.9300 0.2879
49.9400 0.7375
49.9500 0.0000
49.9600 1.5417
49.9700 0.4443
49.9800 0.7541
49.9900 0.2477
50.0000 0.0000
50.0100 0.0365
50.0200 2.9847
50.0300 0.4359
50.0400 1.5036
50.0500 0.8304
50.0600 1.1777
50.0700 0.6042
50.0800 0.3989
50.0900 1.5835
50.1000 0.4181
50.1100 1.9827
50.1200 0.0407
50.1300 0.1688
50.1400 0.8321
50.1500 0.0000
50.1600 0.5064
50.1700 1.5801
50.1800 0.0000
50.1900 0.0000
50.2000 0.0000
50.2100 1.8279
50.2200 1.0639
50.2300 1.0526
50.2400 0.0000
50.2500 0.0000
50.2600 0.0000
50.2700 0.0000
50.2800 1.6105
50.2900 0.4443
50.3000 0.9609
50.3100 0.0000
50.3200 0.0000
50.3300 0.0000
50.3400 0.0000
50.3500 0.0000
50.3600 0.0000
50.3700 0.0000
50.3800 0.0000
50.3900 0.0000
50.4000 1.6901
50.4100 2.8236
50.4200 0.3655
50.4300 0.0000
50.4400 0.0000
50.4500 0.5658
50.4600 2.4231
50.4700 0.0000
50.4800 0.0000
50.4900 0.0000
50.5000 0.0000
50.5100 2.7156
50.5200 0.2442
50.5300 0.8920
50.5400 1.1358
50.5500 0.0000
50.5600 1.0263
50.5700 0.0000
50.5800 0.4200
50.5900 0.5885
50.6000 0.0000
50.6100 0.0000
50.6200 0.0000
50.6300 0.9181
50.6400 1.0055
50.6500 0.0176
50.6600 1.0316
50.6700 0.2528
50.6800 0.5729
50.6900 1.4840
50.7000 1.5765
50.7100 0.0000
50.7200 0.5338
50.7300 0.1896
50.7400 0.3352
50.7500 0.0477
50.7600 1.1214
50.7700 1.2241
50.7800 1.8287
50.7900 0.4070
50.8000 2.0577
50.8100 0.4675
50.8200 1.7434
50.8300 1.3077
50.8400 0.0000
50.8500 0.0000
50.8600 0.9986
50.8700 0.0000
50.8800 2.1732
50.8900 1.7200
50.9000 1.4581
50.9100 2.0872
50.9200 1.4921
50.9300 0.0000
50.9400 0.0000
50.9500 0.0000
50.9600 0.0000
50.9700 1.0173
50.9800 1.0318
50.9900 0.0000
51.0000 0.0000
51.0100 0.0000
51.0200 0.0000
51.0300 0.0000
51.0400 0.0000
51.0500 0.9977
51.0600 0.0000
51.0700 0.0000
51.0800 0.0000
51.0900 0.0000
51.1000 0.0000
51.1100 0.0000
51.1200 0.4977
51.1300 1.6474
51.1400 0.7581
51.1500 1.8593
51.1600 0.2190
51.1700 0.0000
51.1800 0.9754
51.1900 0.0000
51.2000 1.2391
51.2100 1.1577
51.2200 1.7219
51.2300 0.0000
51.2400 0.9610
51.2500 0.0000
51.2600 0.0000
51.2700 0.0000
51.2800 0.0000
51.2900 0.0000
51.3000 0.0000
51.3100 0.0000
51.3200 1.4031
51.3300 1.1115
51.3400 1.1118
51.3500 0.4069
51.3600 0.9493
51.3700 0.8746
51.3800 0.1266
51.3900 0.0634
51.4000 0.9536
51.4100 0.2477
51.4200 2.8073
51.4300 0.4541
51.4400 1.1271
51.4500 2.0894
51.4600 0.3656
51.4700 0.0000
51.4800 0.0000
51.4900 0.0128
51.5000 2.1230
51.5100 1.0117
51.5200 0.0000
51.5300 0.0000
51.5400 0.0000
51.5500 0.0000
51.5600 0.6604
51.5700 1.1915
51.5800 0.2259
51.5900 1.1264
51.6000 0.0467
51.6100 2.9500
51.6200 0.0000
51.6300 1.3279
51.6400 0.6865
51.6500 0.0000
51.6600 1.5404
51.6700 0.3744
51.6800 0.9625
51.6900 0.9063
51.7000 1.0591
51.7100 0.0110
51.7200 0.0000
51.7300 0.0000
51.7400 1.0582
51.7500 0.0000
51.7600 0.0000
51.7700 1.2761
51.7800 1.3730
51.7900 1.2255
51.8000 0.0000
51.8100 2.9065
51.8200 0.0000
51.8300 2.1992
51.8400 1.0036
51.8500 0.9973
51.8600 0.0000
51.8700 1.9702
51.8800 1.0133
51.8900 0.7576
51.9000 2.1596
51.9100 2.0611
51.9200 0.1975
51.9300 2.8283
51.9400 0.2432
51.9500 0.7140
51.9600 1.3499
51.9700 2.2276
51.9800 1.7157
51.9900 0.7347
52.0000 0.8276
52.0100 0.1811
52.0200 1.0013
52.0300 1.0003
52.0400 0.0000
52.0500 0.0000
52.0600 1.0104
52.0700 1.0035
52.0800 0.5536
52.0900 2.1328
52.1000 0.3450
52.1100 0.0000
52.1200 0.0000
52.1300 1.0010
52.1400 1.0419
52.1500 1.0147
52.1600 0.0000
52.1700 0.0000
52.1800 1.0701
52.1900 0.0000
52.2000 1.1470
52.2100 0.0000
52.2200 0.9970
52.2300 0.9970
52.2400 0.0086
52.2500 0.0000
52.2600 0.0000
52.2700 0.0000
52.2800 0.4502
52.2900 0.5212
52.3000 0.0000
52.3100 0.7789
52.3200 2.0760
52.3300 0.1646
52.3400 0.0000
52.3500 0.0000
52.3600 0.2202
52.3700 2.9466
52.3800 0.0000
52.3900 1.0590
52.4000 0.0000
52.4100 0.6661
52.4200 0.2984
52.4300 0.0000
52.4400 0.0000
52.4500 0.9545
52.4600 0.0000
52.4700 0.0000
52.4800 0.3452
52.4900 1.5897
52.5000 0.5206
52.5100 0.4432
52.5200 1.0900
52.5300 0.0000
52.5400 0.9344
52.5500 2.1374
52.5600 0.9599
52.5700 0.0000
52.5800 0.0000
52.5900 2.0030
52.6000 1.0640
52.6100 0.9622
52.6200 0.0000
52.6300 2.9502
52.6400 0.0000
52.6500 0.0000
52.6600 0.0514
52.6700 1.1056
52.6800 2.3230
52.6900 1.5004
52.7000 0.0000
52.7100 0.0000
52.7200 0.9294
52.7300 0.9590
52.7400 0.7820
52.7500 0.1887
52.7600 1.0339
52.7700 1.0041
52.7800 0.0000
52.7900 0.0000
52.8000 0.0000
52.8100 0.0000
52.8200 0.0000
52.8300 0.0000
52.8400 0.0000
52.8500 0.8646
52.8600 1.1856
52.8700 0.0000
52.8800 0.0000
52.8900 0.0000
52.9000 0.0000
52.9100 0.0000
52.9200 0.0000
52.9300 0.0000
52.9400 0.0000
52.9500 0.0000
52.9600 0.9780
52.9700 1.1074
52.9800 0.0000
52.9900 0.0000
53.0000 1.0194
53.0100 0.0000
53.0200 0.0000
53.0300 0.0000
53.0400 0.0000
53.0500 0.0000
53.0600 0.0000
53.0700 0.8908
53.0800 0.0922
53.0900 3.0192
53.1000 1.0091
53.1100 1.0146
53.1200 0.0000
53.1300 1.4951
53.1400 1.5027
53.1500 2.0120
53.1600 1.7559
53.1700 0.2284
53.1800 0.0000
53.1900 0.0509
53.2000 0.9032
53.2100 0.2792
53.2200 0.8738
53.2300 0.0000
53.2400 1.0011
53.2500 0.0000
53.2600 0.7087
53.2700 0.2837
53.2800 0.0000
53.2900 0.0000
53.3000 0.0000
53.3100 0.0000
53.3200 0.0000
53.3300 0.0000
53.3400 0.0000
53.3500 0.0000
53.3600 0.6637
53.3700 0.3449
53.3800 1.9219
53.3900 0.0000
53.4000 0.0391
53.4100 1.0809
53.4200 0.1463
53.4300 0.3677
53.4400 0.7857
53.4500 0.0000
53.4600 0.0000
53.4700 0.6557
53.4800 0.2859
53.4900 0.0000
53.5000 1.9511
53.5100 0.0199
53.5200 1.0954
53.5300 0.0000
53.5400 0.0000
53.5500 1.1132
53.5600 0.5646
53.5700 1.4802
53.5800 0.0000
53.5900 0.0000
53.6000 0.0000
53.6100 0.0000
53.6200 0.0000
53.6300 0.2060
53.6400 2.1588
53.6500 0.6897
53.6600 0.0000
53.6700 0.0000
53.6800 0.0000
53.6900 1.9635
53.7000 0.0000
53.7100 0.0000
53.7200 0.9946
53.7300 0.0000
53.7400 0.0000
53.7500 0.0000
53.7600 0.0000
53.7700 1.0333
53.7800 0.0000
53.7900 0.0000
53.8000 0.0000
53.8100 0.0000
53.8200 1.9570
53.8300 0.0000
53.8400 0.1826
53.8500 1.7994
53.8600 1.0247
53.8700 0.0000
53.8800 1.1278
53.8900 1.9139
53.9000 0.7650
53.9100 0.2478
53.9200 0.0000
53.9300 0.0393
53.9400 2.2242
53.9500 1.7740
53.9600 0.0000
53.9700 1.0053
53.9800 0.9535
53.9900 0.0000
54.0000 2.0757
54.0100 2.5405
54.0200 2.3912
54.0300 0.0000
54.0400 1.9934
54.0500 0.0000
54.0600 0.0000
54.0700 0.0000
54.0800 0.0000
54.0900 0.0000
54.1000 1.6757
54.1100 1.0914
54.1200 0.2556
54.1300 0.0000
54.1400 1.0124
54.1500 0.0000
54.1600 1.0157
54.1700 0.2905
54.1800 1.6307
54.1900 0.4948
54.2000 0.5093
54.2100 0.6464
54.2200 0.3020
54.2300 2.0817
54.2400 1.0062
54.2500 0.0583
54.2600 0.9273
54.2700 0.2499
54.2800 0.7582
54.2900 0.4737
54.3000 3.0834
54.3100 0.4550
54.3200 0.0000
54.3300 0.0000
54.3400 0.8950
54.3500 1.0988
54.3600 0.9798
54.3700 0.1805
54.3800 1.0705
54.3900 0.7741
54.4000 0.0000
54.4100 0.9975
54.4200 0.6798
54.4300 1.3199
54.4400 0.0000
54.4500 1.0715
54.4600 0.0000
54.4700 2.1117
54.4800 1.0657
54.4900 1.4236
54.5000 2.3878
54.5100 0.0000
54.5200 0.6203
54.5300 0.4003
54.5400 0.7707
54.5500 0.1968
54.5600 0.0000
54.5700 0.0000
54.5800 0.0000
54.5900 0.0835
54.6000 0.2274
54.6100 1.3605
54.6200 0.3375
54.6300 0.0000
54.6400 0.0000
54.6500 0.2751
54.6600 2.8526
54.6700 0.7269
54.6800 0.1117
54.6900 0.8344
54.7000 0.6504
54.7100 1.4689
54.7200 0.0000
54.7300 0.0000
54.7400 0.0000
54.7500 2.5659
54.7600 0.4352
54.7700 0.0000
54.7800 0.0647
54.7900 0.9782
54.8000 0.0000
54.8100 1.0007
54.8200 0.0000
54.8300 0.0000
54.8400 0.0000
54.8500 0.0000
54.8600 0.0000
54.8700 0.0000
54.8800 0.9900
54.8900 0.0000
54.9000 0.0000
54.9100 0.0000
54.9200 0.0000
54.9300 1.0132
54.9400 0.0000
54.9500 0.6691
54.9600 0.3344
54.9700 1.8173
54.9800 0.1389
54.9900 0.0000
55.0000 0.0000
55.0100 0.0000
55.0200 0.0000
55.0300 0.0000
55.0400 0.9927
55.0500 0.0000
55.0600 0.0000
55.0700 0.8281
55.0800 1.1794
55.0900 0.9840
55.1000 2.0339
55.1100 0.0000
55.1200 0.6585
55.1300 1.3895
55.1400 1.5907
55.1500 0.5445
55.1600 3.6898
55.1700 0.3786
55.1800 0.9814
55.1900 0.0000
55.2000 3.0610
55.2100 0.9683
55.2200 0.2127
55.2300 0.7746
55.2400 0.4013
55.2500 1.5628
55.2600 1.5562
55.2700 0.3925
55.2800 0.0000
55.2900 0.0000
55.3000 0.0000
55.3100 0.0000
55.3200 0.9781
55.3300 1.2662
55.3400 1.7372
55.3500 0.4411
55.3600 1.5336
55.3700 0.6541
55.3800 0.3820
55.3900 1.6382
55.4000 1.3376
55.4100 0.0089
55.4200 1.9851
55.4300 0.9656
55.4400 0.0000
55.4500 0.0000
55.4600 0.0000
55.4700 0.0000
55.4800 0.0000
55.4900 0.9770
55.5000 0.9735
55.5100 0.9501
55.5200 2.0095
55.5300 0.9568
55.5400 0.0000
55.5500 0.0000
55.5600 0.0000
55.5700 0.5751
55.5800 0.5325
55.5900 1.4640
55.6000 1.5965
55.6100 1.0751
55.6200 0.0000
55.6300 0.0000
55.6400 1.0055
55.6500 0.2674
55.6600 0.7071
55.6700 0.4391
55.6800 0.5090
55.6900 0.9731
55.7000 0.0000
55.7100 0.9555
55.7200 1.9837
55.7300 0.0725
55.7400 0.1364
55.7500 0.9643
55.7600 0.0000
55.7700 0.4043
55.7800 1.1475
55.7900 0.5554
55.8000 0.9778
55.8100 0.9927
55.8200 1.8638
55.8300 0.1235
55.8400 0.0000
55.8500 0.0000
55.8600 0.0000
55.8700 0.0000
55.8800 0.4375
55.8900 0.5446
55.9000 1.9957
55.9100 0.0000
55.9200 0.0000
55.9300 1.8383
55.9400 1.1185
55.9500 0.1010
55.9600 1.0486
55.9700 1.2819
55.9800 2.2550
55.9900 0.0000
56.0000 0.5707
56.0100 2.3862
56.0200 0.0000
56.0300 1.8240
56.0400 0.1389
56.0500 0.0000
56.0600 0.0000
56.0700 0.0000
56.0800 0.0000
56.0900 0.0000
56.1000 0.0000
56.1100 0.0000
56.1200 1.0532
56.1300 0.7390
56.1400 0.1787
56.1500 1.0194
56.1600 0.0061
56.1700 0.0000
56.1800 0.2581
56.1900 0.6729
56.2000 1.5107
56.2100 0.5255
56.2200 0.0000
56.2300 0.3263
56.2400 0.0000
56.2500 0.6526
56.2600 0.0000
56.2700 0.0000
56.2800 2.2782
56.2900 0.7813
56.3000 1.0520
56.3100 0.5299
56.3200 2.4714
56.3300 0.0000
56.3400 1.5205
56.3500 0.4101
56.3600 0.1294
56.3700 0.0031
56.3800 0.9278
56.3900 0.0000
56.4000 0.0000
56.4100 0.9457
56.4200 2.6433
56.4300 1.4519
56.4400 0.7568
56.4500 2.0984
56.4600 0.1703
56.4700 0.0000
56.4800 0.1063
56.4900 1.0709
56.5000 1.8468
56.5100 0.3971
56.5200 0.6152
56.5300 3.2733
56.5400 2.6297
56.5500 0.7466
56.5600 0.2232
56.5700 0.0000
56.5800 0.0000
56.5900 0.0000
56.6000 0.0000
56.6100 0.0000
56.6200 0.4184
56.6300 0.5532
56.6400 0.6232
56.6500 1.0826
56.6600 0.2805
56.6700 0.8500
56.6800 0.0917
56.6900 2.0355
56.7000 0.0000
56.7100 0.3222
56.7200 2.2711
56.7300 1.5745
56.7400 1.5116
56.7500 0.4095
56.7600 0.0000
56.7700 0.0000
56.7800 0.9679
56.7900 1.0684
56.8000 0.9456
56.8100 1.0264
56.8200 0.3348
56.8300 0.7165
56.8400 0.5001
56.8500 0.4857
56.8600 0.7385
56.8700 0.3225
56.8800 0.0000
56.8900 0.0000
56.9000 0.0000
56.9100 0.0000
56.9200 0.0000
56.9300 0.9799
56.9400 0.4257
56.9500 1.5244
56.9600 1.0123
56.9700 1.4911
56.9800 0.5392
56.9900 0.0000
57.0000 0.0000
57.0100 0.0000
57.0200 0.0000
57.0300 0.0000
57.0400 0.0000
57.0500 0.0000
57.0600 0.9610
57.0700 0.7008
57.0800 1.3422
57.0900 0.8329
57.1000 0.1276
57.1100 1.0879
57.1200 1.2903
57.1300 1.6985
57.1400 1.2548
57.1500 1.0515
57.1600 0.5723
57.1700 0.0000
57.1800 0.0000
57.1900 1.5412
57.2000 0.3590
57.2100 0.0000
57.2200 0.9475
57.2300 0.0000
57.2400 0.0000
57.2500 0.0000
57.2600 1.0168
57.2700 0.0000
57.2800 0.0000
57.2900 0.0000
57.3000 0.8022
57.3100 1.0660
57.3200 0.0550
57.3300 0.0000
57.3400 1.1160
57.3500 0.0000
57.3600 1.4579
57.3700 1.5501
57.3800 0.0000
57.3900 0.0000
57.4000 0.0000
57.4100 0.0000
57.4200 0.0000
57.4300 0.0000
57.4400 0.1677
57.4500 0.8133
57.4600 1.9320
57.4700 0.0000
57.4800 0.0000
57.4900 1.0079
57.5000 1.7972
57.5100 0.2800
57.5200 0.9913
57.5300 0.0791
57.5400 0.9718
57.5500 0.0000
57.5600 2.0163
57.5700 0.0000
57.5800 0.9363
57.5900 0.9649
57.6000 0.0000
57.6100 0.0000
57.6200 0.9010
57.6300 1.1100
57.6400 0.0000
57.6500 0.3093
57.6600 1.7095
57.6700 0.0000
57.6800 0.4427
57.6900 1.1216
57.7000 0.4861
57.7100 0.0000
57.7200 0.0000
57.7300 0.0000
57.7400 1.0256
57.7500 0.0000
57.7600 0.1919
57.7700 0.8099
57.7800 0.0000
57.7900 2.4010
57.8000 3.1186
57.8100 2.1109
57.8200 2.2080
57.8300 1.9196
57.8400 0.2922
57.8500 0.1454
57.8600 0.1325
57.8700 2.1961
57.8800 0.9805
57.8900 1.7272
57.9000 0.5752
57.9100 0.1400
57.9200 0.0000
57.9300 0.0000
57.9400 1.0195
57.9500 0.0000
57.9600 1.0504
57.9700 0.9027
57.9800 2.0828
57.9900 0.0000
58.0000 0.0000
58.0100 0.0000
58.0200 0.0853
58.0300 1.5136
58.0400 1.2861
58.0500 1.1195
58.0600 0.0739
58.0700 0.0000
58.0800 0.2025
58.0900 1.0648
58.1000 2.5400
58.1100 1.2103
58.1200 0.0000
58.1300 0.9698
58.1400 0.0000
58.1500 0.8450
58.1600 1.0908
58.1700 1.0586
58.1800 0.9385
58.1900 0.2483
58.2000 1.7791
58.2100 0.0000
58.2200 0.0000
58.2300 0.0000
58.2400 0.9522
58.2500 0.0000
58.2600 1.8245
58.2700 1.0627
58.2800 0.0000
58.2900 0.0000
58.3000 0.0000
58.3100 0.0000
58.3200 0.0000
58.3300 0.0000
58.3400 0.6312
58.3500 0.3159
58.3600 0.0000
58.3700 0.0000
58.3800 0.0438
58.3900 0.9507
58.4000 0.0000
58.4100 0.0000
58.4200 0.0000
58.4300 0.5086
58.4400 1.0637
58.4500 1.1749
58.4600 1.1406
58.4700 1.1369
58.4800 1.1622
58.4900 2.1964
58.5000 1.9574
58.5100 1.5319
58.5200 2.4840
58.5300 0.0000
58.5400 1.5798
58.5500 1.1167
58.5600 0.3602
58.5700 0.7998
58.5800 0.1552
58.5900 2.0473
58.6000 0.0000
58.6100 0.0000
58.6200 0.0000
58.6300 0.0000
58.6400 0.0000
58.6500 0.0000
58.6600 0.0000
58.6700 0.0000
58.6800 0.9826
58.6900 0.0000
58.7000 0.0000
58.7100 0.0000
58.7200 0.0000
58.7300 0.0000
58.7400 0.0000
58.7500 0.0000
58.7600 0.0000
58.7700 0.6966
58.7800 0.2637
58.7900 0.9314
58.8000 3.0420
58.8100 0.0000
58.8200 0.0000
58.8300 0.0000
58.8400 0.0000
58.8500 0.4798
58.8600 1.1411
58.8700 1.7882
58.8800 0.6561
58.8900 1.0382
58.9000 0.9930
58.9100 0.0000
58.9200 1.0613
58.9300 0.0000
58.9400 0.3217
58.9500 0.6528
58.9600 0.0000
58.9700 0.0000
58.9800 2.2668
58.9900 0.9363
59.0000 0.0000
59.0100 0.0000
59.0200 0.0000
59.0300 0.1745
59.0400 0.7970
59.0500 0.0000
59.0600 0.9615
59.0700 0.9314
59.0800 0.0000
59.0900 0.0000
59.1000 0.0000
59.1100 1.0289
59.1200 0.0718
59.1300 0.0000
59.1400 0.0000
59.1500 0.9824
59.1600 0.0000
59.1700 0.0000
59.1800 0.6077
59.1900 0.4127
59.2000 0.0000
59.2100 0.0000
59.2200 0.0000
59.2300 0.0000
59.2400 0.0000
59.2500 0.9756
59.2600 0.0000
59.2700 0.0000
59.2800 0.0000
59.2900 0.0000
59.3000 1.6662
59.3100 0.2608
59.3200 0.0000
59.3300 0.0000
59.3400 0.1072
59.3500 0.9057
59.3600 0.0000
59.3700 0.0000
59.3800 2.4340
59.3900 1.0878
59.4000 1.4780
59.4100 0.0000
59.4200 0.0000
59.4300 0.9371
59.4400 2.1512
59.4500 0.9445
59.4600 0.6414
59.4700 0.3342
59.4800 0.9901
59.4900 0.0000
59.5000 0.0000
59.5100 0.0000
59.5200 0.7952
59.5300 0.1926
59.5400 1.9499
59.5500 0.0000
59.5600 0.1836
59.5700 0.8222
59.5800 0.7056
59.5900 1.1946
59.6000 1.1537
59.6100 0.9060
59.6200 1.7317
59.6300 0.2542
59.6400 0.0000
59.6500 0.0000
59.6600 0.0000
59.6700 0.0000
59.6800 0.9706
59.6900 0.0000
59.7000 0.9543
59.7100 0.0000
59.7200 0.9775
59.7300 0.0000
59.7400 0.9547
59.7500 0.0000
59.7600 0.0663
59.7700 0.8743
59.7800 0.0000
59.7900 0.9495
59.8000 1.0036
59.8100 0.9886
59.8200 0.0000
59.8300 0.0000
59.8400 0.0000
59.8500 0.0000
59.8600 0.0000
59.8700 0.0000
59.8800 0.2005
59.8900 2.0768
59.9000 2.0620
59.9100 0.6546
59.9200 0.0000
59.9300 1.6221
59.9400 0.3251
59.9500 0.8969
59.9600 0.1413
59.9700 0.0000
59.9800 0.0000
59.9900 1.0252
60.0000 0.9795
60.0100 0.0000
60.0200 0.0000
60.0300 0.6592
60.0400 1.1037
60.0500 1.0641
60.0600 1.9800
60.0700 1.1655
60.0800 1.0779
60.0900 1.3203
60.1000 1.5913
60.1100 0.3865
60.1200 0.6463
60.1300 0.0000
60.1400 0.0000
60.1500 0.9457
60.1600 0.0000
60.1700 0.0000
60.1800 0.0000
60.1900 1.0176
60.2000 0.0000
60.2100 1.0547
60.2200 0.0000
60.2300 0.0000
60.2400 1.0690
60.2500 0.6357
60.2600 0.2780
60.2700 0.0000
60.2800 1.0398
60.2900 1.0667
60.3000 0.9609
60.3100 0.0000
60.3200 0.0000
60.3300 0.0000
60.3400 0.9216
60.3500 0.0000
60.3600 0.0000
60.3700 0.0000
60.3800 0.0000
60.3900 0.0000
60.4000 0.0000
60.4100 0.0000
60.4200 0.1010
60.4300 0.2352
60.4400 0.3290
60.4500 0.3435
60.4600 1.6566
60.4700 1.1139
60.4800 0.2347
60.4900 0.0000
60.5000 1.0431
60.5100 0.1431
60.5200 1.0601
60.5300 0.7704
60.5400 0.4109
60.5500 0.5376
60.5600 0.0000
60.5700 0.6809
60.5800 2.1053
60.5900 1.0774
60.6000 0.0935
60.6100 0.0000
60.6200 0.0000
60.6300 0.0000
60.6400 0.0000
60.6500 0.0000
60.6600 0.0000
60.6700 2.0091
60.6800 0.4685
60.6900 0.1523
60.7000 1.2128
60.7100 1.1010
60.7200 0.0000
60.7300 0.9677
60.7400 0.9836
60.7500 0.4253
60.7600 0.5983
60.7700 0.0000
60.7800 0.0000
60.7900 0.0000
60.8000 0.0000
60.8100 1.0572
60.8200 1.1449
60.8300 0.0000
60.8400 1.0150
60.8500 1.0283
60.8600 1.1926
60.8700 0.0000
60.8800 0.9699
60.8900 1.9822
60.9000 0.1303
60.9100 1.0004
60.9200 5.2924
60.9300 1.1080
60.9400 0.0000
60.9500 1.0448
60.9600 0.0000
60.9700 0.4701
60.9800 1.4325
60.9900 0.8464
61.0000 1.1269
61.0100 0.2116
61.0200 1.0176
61.0300 0.9760
61.0400 0.1458
61.0500 3.8997
61.0600 0.0000
61.0700 0.0000
61.0800 0.5597
61.0900 0.4954
61.1000 0.0000
61.1100 1.6573
61.1200 0.3795
61.1300 0.0023
61.1400 1.9250
61.1500 1.0065
61.1600 1.2625
61.1700 0.7018
61.1800 0.4658
61.1900 1.5061
61.2000 0.9891
61.2100 0.0000
61.2200 0.0000
61.2300 1.0241
61.2400 0.9865
61.2500 3.1459
61.2600 0.8257
61.2700 0.3146
61.2800 0.6564
61.2900 0.0000
61.3000 0.6128
61.3100 1.7074
61.3200 2.1260
61.3300 2.0652
61.3400 0.2048
61.3500 0.0000
61.3600 0.1611
61.3700 1.9895
61.3800 1.6735
61.3900 0.0000
61.4000 0.0000
61.4100 0.0000
61.4200 0.7410
61.4300 0.2605
61.4400 0.9004
61.4500 1.0028
61.4600 0.0000
61.4700 0.0000
61.4800 0.0000
61.4900 1.3927
61.5000 1.0515
61.5100 0.4655
61.5200 0.0000
61.5300 0.0000
61.5400 0.8306
61.5500 3.0350
61.5600 0.0313
61.5700 0.0000
61.5800 1.1807
61.5900 0.7068
61.6000 0.4578
61.6100 1.1182
61.6200 1.0551
61.6300 1.1048
61.6400 1.9225
61.6500 0.3665
61.6600 2.0176
61.6700 0.1013
61.6800 2.8880
61.6900 1.1499
61.7000 0.3617
61.7100 1.5447
61.7200 3.1033
61.7300 0.0000
61.7400 0.7407
61.7500 1.9357
61.7600 2.9669
61.7700 0.0573
61.7800 1.3978
61.7900 4.8744
61.8000 0.3264
61.8100 2.0469
61.8200 2.0498
61.8300 1.4847
61.8400 0.0000
61.8500 1.7733
61.8600 1.2379
61.8700 2.0292
61.8800 0.3442
61.8900 3.7082
61.9000 0.0000
61.9100 0.9459
61.9200 0.0000
61.9300 0.9615
61.9400 0.0000
61.9500 1.4729
61.9600 1.3690
61.9700 0.1670
61.9800 0.0000
61.9900 0.0000
62.0000 0.2100
62.0100 2.0423
62.0200 1.3038
62.0300 0.0000
62.0400 0.8848
62.0500 1.3932
62.0600 0.9866
62.0700 0.0000
62.0800 0.0000
62.0900 0.1894
62.1000 1.1259
62.1100 1.7980
62.1200 0.0000
62.1300 0.0000
62.1400 1.0033
62.1500 0.9860
62.1600 0.7066
62.1700 0.2679
62.1800 0.0000
62.1900 0.0000
62.2000 0.9574
62.2100 0.0000
62.2200 0.0000
62.2300 0.0000
62.2400 0.0000
62.2500 0.0000
62.2600 0.0000
62.2700 0.0000
62.2800 4.0612
62.2900 0.0000
62.3000 1.0095
62.3100 0.0000
62.3200 1.9776
62.3300 1.0783
62.3400 2.0059
62.3500 0.0000
62.3600 4.7136
62.3700 0.0000
62.3800 3.1115
62.3900 0.0000
62.4000 0.0000
62.4100 0.1636
62.4200 3.8526
62.4300 0.0000
62.4400 0.0000
62.4500 0.0000
62.4600 0.0000
62.4700 0.0000
62.4800 0.0000
62.4900 0.0000
62.5000 0.0000
62.5100 0.0000
62.5200 1.0198
62.5300 0.0000
62.5400 0.0000
62.5500 1.9004
62.5600 0.0000
62.5700 0.5989
62.5800 1.1263
62.5900 1.2582
62.6000 0.0000
62.6100 0.0000
62.6200 0.0000
62.6300 0.0000
62.6400 1.2032
62.6500 0.7353
62.6600 0.0000
62.6700 0.0000
62.6800 1.0081
62.6900 0.7041
62.7000 0.2631
62.7100 2.0163
62.7200 0.0114
62.7300 1.0130
62.7400 1.1333
62.7500 0.8313
62.7600 0.0000
62.7700 0.0000
62.7800 0.0000
62.7900 0.0000
62.8000 1.8437
62.8100 1.1090
62.8200 0.1413
62.8300 0.0000
62.8400 1.1123
62.8500 0.9132
62.8600 0.0000
62.8700 0.9676
62.8800 0.5346
62.8900 0.4906
62.9000 0.0000
62.9100 1.8285
62.9200 1.1787
62.9300 0.0000
62.9400 1.9627
62.9500 0.0000
62.9600 0.0000
62.9700 0.3749
62.9800 1.6424
62.9900 0.0000
63.0000 1.9485
63.0100 0.0000
63.0200 0.0000
63.0300 0.0000
63.0400 2.1214
63.0500 0.0000
63.0600 0.0000
63.0700 0.3229
63.0800 0.7022
63.0900 0.9568
63.1000 0.9425
63.1100 0.0000
63.1200 0.8231
63.1300 0.2228
63.1400 0.9807
63.1500 0.0711
63.1600 1.9895
63.1700 0.2579
63.1800 0.7380
63.1900 0.4361
63.2000 0.5380
63.2100 0.0000
63.2200 0.0000
63.2300 0.9563
63.2400 0.9711
63.2500 0.0848
63.2600 1.0041
63.2700 0.0000
63.2800 0.6117
63.2900 1.4462
63.3000 0.0000
63.3100 0.0000
63.3200 1.7266
63.3300 0.3376
63.3400 1.7729
63.3500 0.2800
63.3600 2.0362
63.3700 0.0000
63.3800 0.0000
63.3900 0.0000
63.4000 0.4148
63.4100 1.0754
63.4200 0.4766
63.4300 1.0143
63.4400 0.7959
63.4500 0.1897
63.4600 1.9519
63.4700 2.9074
63.4800 0.9910
63.4900 0.0000
63.5000 0.7392
63.5100 2.2643
63.5200 0.5670
63.5300 0.4406
63.5400 0.7961
63.5500 0.2632
63.5600 0.0000
63.5700 0.0000
63.5800 0.0000
63.5900 0.2181
63.6000 1.7684
63.6100 1.2748
63.6200 0.0000
63.6300 0.6242
63.6400 0.0000
63.6500 0.0000
63.6600 0.0000
63.6700 1.0139
63.6800 0.0709
63.6900 0.9002
63.7000 0.0000
63.7100 0.7027
63.7200 1.2700
63.7300 0.0000
63.7400 1.6089
63.7500 0.3395
63.7600 0.9729
63.7700 0.0000
63.7800 1.9997
63.7900 0.1117
63.8000 1.8995
63.8100 0.9809
63.8200 0.0000
63.8300 0.9969
63.8400 0.0000
63.8500 0.6449
63.8600 0.3067
63.8700 0.0000
63.8800 0.0000
63.8900 0.9761
63.9000 0.0000
63.9100 0.0000
63.9200 1.3460
63.9300 0.6641
63.9400 0.0000
63.9500 0.6342
63.9600 0.3859
63.9700 0.3175
63.9800 0.9525
63.9900 0.6350
64.0000 1.3496
64.0100 0.0000
64.0200 1.6869
64.0300 0.0000
64.0400 0.0000
64.0500 0.0000
64.0600 0.0000
64.0700 0.0000
64.0800 0.8018
64.0900 1.1466
64.1000 0.9930
64.1100 0.0000
64.1200 0.2224
64.1300 1.0868
64.1400 1.6445
64.1500 2.9867
64.1600 0.9929
64.1700 0.9903
64.1800 1.0378
64.1900 2.6545
64.2000 0.3377
64.2100 2.1157
64.2200 0.0000
64.2300 1.4413
64.2400 0.7494
64.2500 1.0541
64.2600 0.9826
64.2700 2.1655
64.2800 1.0006
64.2900 0.0000
64.3000 0.0000
64.3100 1.9867
64.3200 1.1226
64.3300 1.0810
64.3400 1.4097
64.3500 1.3876
64.3600 1.0915
64.3700 0.5725
64.3800 0.4041
64.3900 0.0000
64.4000 0.0000
64.4100 0.0000
64.4200 0.9875
64.4300 0.0000
64.4400 0.2481
64.4500 1.8428
64.4600 0.0000
64.4700 0.0000
64.4800 0.5992
64.4900 0.3602
64.5000 0.0000
64.5100 0.0000
64.5200 0.9514
64.5300 0.9649
64.5400 0.0000
64.5500 0.5774
64.5600 1.4462
64.5700 0.0000
64.5800 0.6022
64.5900 2.4013
64.6000 0.9859
64.6100 0.0000
64.6200 2.8054
64.6300 2.0813
64.6400 3.2116
64.6500 2.4736
64.6600 0.1004
64.6700 1.5867
64.6800 1.5924
64.6900 2.5742
64.7000 0.3858
64.7100 0.7978
64.7200 0.2049
64.7300 1.9244
64.7400 0.0152
64.7500 2.1290
64.7600 1.8582
64.7700 1.3299
64.7800 1.5988
64.7900 0.0000
64.8000 0.0000
64.8100 0.7273
64.8200 1.1000
64.8300 2.1409
64.8400 2.9267
64.8500 3.0041
64.8600 1.9108
64.8700 0.7947
64.8800 1.8026
64.8900 4.0820
64.9000 6.0600
64.9100 0.7246
64.9200 2.7139
64.9300 1.5229
64.9400 2.9664
64.9500 2.0556
64.9600 0.4649
64.9700 2.7711
64.9800 2.6574
64.9900 2.8210
65.0000 4.8732
65.0100 2.0905
65.0200 2.2970
65.0300 1.9148
65.0400 1.0013
65.0500 1.2802
65.0600 1.3257
65.0700 4.4646
65.0800 1.1209
65.0900 2.1072
65.1000 2.0054
65.1100 0.4838
65.1200 0.9557
65.1300 0.0000
65.1400 0.0000
65.1500 0.9418
65.1600 2.9549
65.1700 0.1359
65.1800 1.0663
65.1900 2.0268
65.2000 7.8750
65.2100 0.0000
65.2200 3.1102
65.2300 0.0000
65.2400 0.7696
65.2500 0.1941
65.2600 3.0153
65.2700 1.1081
65.2800 0.9676
65.2900 0.0000
65.3000 0.0000
65.3100 0.0000
65.3200 0.5387
65.3300 1.5662
65.3400 0.0000
65.3500 1.6534
65.3600 2.3852
65.3700 0.0100
65.3800 1.0214
65.3900 0.0000
65.4000 1.9452
65.4100 0.0000
65.4200 1.0444
65.4300 0.6196
65.4400 0.4270
65.4500 0.0000
65.4600 0.0000
65.4700 0.0000
65.4800 1.0240
65.4900 0.3099
65.5000 2.6204
65.5100 0.3415
65.5200 1.6085
65.5300 0.5116
65.5400 1.0750
65.5500 0.3706
65.5600 2.0436
65.5700 0.0000
65.5800 0.0083
65.5900 1.0341
65.6000 0.0000
65.6100 0.2831
65.6200 0.6892
65.6300 0.4641
65.6400 0.5030
65.6500 0.0000
65.6600 0.0000
65.6700 1.6828
65.6800 0.2796
65.6900 1.0071
65.7000 2.9253
65.7100 0.0000
65.7200 0.0000
65.7300 0.0000
65.7400 1.0205
65.7500 0.0000
65.7600 1.6848
65.7700 0.2869
65.7800 0.0000
65.7900 0.9530
65.8000 0.0000
65.8100 0.0000
65.8200 0.0000
65.8300 0.0000
65.8400 0.0000
65.8500 1.1256
65.8600 0.8966
65.8700 0.0000
65.8800 0.9664
65.8900 0.0000
65.9000 0.0000
65.9100 0.0000
65.9200 0.0000
65.9300 0.3126
65.9400 0.6900
65.9500 0.0000
65.9600 0.0000
65.9700 0.6574
65.9800 1.2452
65.9900 0.0000
66.0000 0.0000
66.0100 0.9566
66.0200 0.0000
66.0300 0.0000
66.0400 0.0000
66.0500 1.0588
66.0600 0.0000
66.0700 0.9764
66.0800 1.9872
66.0900 1.1331
66.1000 1.9974
66.1100 1.0541
66.1200 1.0119
66.1300 0.0000
66.1400 0.5752
66.1500 1.3810
66.1600 0.0000
66.1700 1.6343
66.1800 0.4074
66.1900 0.9556
66.2000 1.8841
66.2100 1.3818
66.2200 1.0180
66.2300 1.9507
66.2400 0.0000
66.2500 0.0000
66.2600 1.0576
66.2700 1.9649
66.2800 0.0000
66.2900 0.0000
66.3000 0.0000
66.3100 0.0000
66.3200 0.0000
66.3300 0.0000
66.3400 0.9820
66.3500 0.0000
66.3600 0.0000
66.3700 0.0000
66.3800 0.0000
66.3900 0.0000
66.4000 0.0000
66.4100 0.0000
66.4200 0.0000
66.4300 0.0000
66.4400 0.0000
66.4500 2.1003
66.4600 0.0000
66.4700 0.0000
66.4800 0.4894
66.4900 0.4827
66.5000 0.0000
66.5100 1.9145
66.5200 1.9582
66.5300 3.4127
66.5400 1.9907
66.5500 0.1703
66.5600 2.8538
66.5700 0.0000
66.5800 0.3027
66.5900 0.3740
66.6000 0.2153
66.6100 0.1231
66.6200 0.0000
66.6300 0.0000
66.6400 0.9948
66.6500 0.9612
66.6600 0.0000
66.6700 0.0000
66.6800 0.0000
66.6900 0.9418
66.7000 0.9783
66.7100 0.0000
66.7200 0.0000
66.7300 0.9853
66.7400 0.0000
66.7500 0.0000
66.7600 0.0000
66.7700 0.0000
66.7800 0.0000
66.7900 0.4157
66.8000 1.0628
66.8100 1.3415
66.8200 1.5355
66.8300 0.0000
66.8400 2.0522
66.8500 1.9642
66.8600 0.0041
66.8700 1.0117
66.8800 0.0000
66.8900 0.9477
66.9000 0.0000
66.9100 0.9818
66.9200 1.0818
66.9300 0.0000
66.9400 0.0000
66.9500 0.0000
66.9600 0.0000
66.9700 0.0000
66.9800 1.0498
66.9900 0.3298
67.0000 0.7087
67.0100 0.0000
67.0200 1.9430
67.0300 1.6935
67.0400 0.3152
67.0500 0.0000
67.0600 0.9788
67.0700 0.0961
67.0800 0.9485
67.0900 1.2680
67.1000 0.7584
67.1100 0.4669
67.1200 1.5188
67.1300 1.5819
67.1400 0.3374
67.1500 0.0000
67.1600 0.0000
67.1700 0.9693
67.1800 2.2439
67.1900 1.9105
67.2000 0.0000
67.2100 1.0123
67.2200 0.0000
67.2300 0.0000
67.2400 0.0000
67.2500 0.0000
67.2600 0.8878
67.2700 0.1371
67.2800 2.1594
67.2900 1.9613
67.3000 0.2387
67.3100 1.6824
67.3200 0.0000
67.3300 0.0000
67.3400 0.6398
67.3500 0.3899
67.3600 0.8404
67.3700 1.0446
67.3800 1.0931
67.3900 0.0011
67.4000 0.0000
67.4100 0.9886
67.4200 0.7532
67.4300 1.2472
67.4400 0.0000
67.4500 0.0000
67.4600 0.0000
67.4700 0.0000
67.4800 0.9315
67.4900 0.0564
67.5000 0.0000
67.5100 0.0000
67.5200 0.0000
67.5300 0.0000
67.5400 0.5074
67.5500 1.0934
67.5600 2.0489
67.5700 0.2935
67.5800 0.9232
67.5900 0.1178
67.6000 0.9592
67.6100 0.1601
67.6200 0.7815
67.6300 0.3507
67.6400 0.6267
67.6500 0.9769
67.6600 0.0000
67.6700 0.7970
67.6800 1.2928
67.6900 1.8033
67.7000 0.1650
67.7100 1.0757
67.7200 0.9136
67.7300 0.5836
67.7400 2.3745
67.7500 0.0000
67.7600 0.0000
67.7700 1.5816
67.7800 1.3258
67.7900 0.0000
67.8000 1.9925
67.8100 0.0633
67.8200 2.3462
67.8300 1.6467
67.8400 0.0000
67.8500 1.0692
67.8600 0.0000
67.8700 1.9103
67.8800 0.0000
67.8900 0.0000
67.9000 0.0000
67.9100 0.0000
67.9200 0.9588
67.9300 0.0000
67.9400 0.0000
67.9500 0.0000
67.9600 0.0000
67.9700 0.0000
67.9800 0.0000
67.9900 1.8716
68.0000 0.2394
68.0100 0.1407
68.0200 1.3574
68.0300 0.9527
68.0400 0.2187
68.0500 0.7365
68.0600 0.0000
68.0700 0.0000
68.0800 0.0000
68.0900 0.0000
68.1000 0.0000
68.1100 0.0000
68.1200 0.0000
68.1300 0.0000
68.1400 0.0000
68.1500 0.2818
68.1600 1.7146
68.1700 0.9491
68.1800 0.0000
68.1900 0.6426
68.2000 0.3538
68.2100 0.0000
68.2200 0.0000
68.2300 1.0146
68.2400 1.9635
68.2500 0.0000
68.2600 0.0000
68.2700 0.0000
68.2800 0.0000
68.2900 0.0000
68.3000 0.6669
68.3100 0.3092
68.3200 0.0000
68.3300 0.9895
68.3400 2.0709
68.3500 0.0000
68.3600 0.0000
68.3700 0.0000
68.3800 0.0000
68.3900 0.9525
68.4000 0.6322
68.4100 0.3758
68.4200 0.0000
68.4300 0.8878
68.4400 1.0656
68.4500 0.0000
68.4600 1.1776
68.4700 1.1187
68.4800 0.7386
68.4900 1.9686
68.5000 0.0000
68.5100 0.9543
68.5200 0.0000
68.5300 1.9940
68.5400 0.0000
68.5500 0.0000
68.5600 0.2674
68.5700 2.6528
68.5800 1.3473
68.5900 0.7055
68.6000 0.0000
68.6100 0.0000
68.6200 0.0000
68.6300 0.9706
68.6400 0.0000
68.6500 0.9618
68.6600 2.1208
68.6700 1.0705
68.6800 0.9091
68.6900 1.0377
68.7000 0.0000
68.7100 0.0000
68.7200 0.6498
68.7300 3.3015
68.7400 0.8155
68.7500 0.1593
68.7600 0.0000
68.7700 0.0000
68.7800 0.2178
68.7900 1.7986
68.8000 0.0000
68.8100 0.0000
68.8200 0.0000
68.8300 0.0000
68.8400 0.0000
68.8500 0.8636
68.8600 1.0567
68.8700 0.0296
68.8800 0.9497
68.8900 0.0000
68.9000 0.0000
68.9100 0.0000
68.9200 1.0057
68.9300 0.0000
68.9400 1.0020
68.9500 0.0000
68.9600 0.0000
68.9700 0.0148
68.9800 1.9186
68.9900 0.0000
69.0000 0.0000
69.0100 0.0000
69.0200 0.5862
69.0300 0.6360
69.0400 1.4091
69.0500 0.9406
69.0600 0.2285
69.0700 0.0000
69.0800 2.0202
69.0900 0.9870
69.1000 2.4707
69.1100 1.5503
69.1200 2.0493
69.1300 0.0000
69.1400 0.0000
69.1500 0.0000
69.1600 0.0000
69.1700 1.0058
69.1800 0.0000
69.1900 0.0000
69.2000 0.0000
69.2100 2.0974
69.2200 0.9890
69.2300 0.9317
69.2400 2.0740
69.2500 0.6558
69.2600 0.3520
69.2700 0.0000
69.2800 1.1334
69.2900 0.0285
69.3000 0.9792
69.3100 0.2055
69.3200 0.7413
69.3300 0.4312
69.3400 0.6313
69.3500 0.5728
69.3600 0.3905
69.3700 0.0000
69.3800 0.8730
69.3900 1.1629
69.4000 0.0298
69.4100 0.1545
69.4200 4.1258
69.4300 1.0657
69.4400 0.6498
69.4500 0.0000
69.4600 0.0000
69.4700 1.5777
69.4800 0.5914
69.4900 0.0000
69.5000 1.0292
69.5100 0.0000
69.5200 0.9722
69.5300 0.0000
69.5400 0.0000
69.5500 0.0000
69.5600 1.1165
69.5700 0.6330
69.5800 0.3099
69.5900 0.0000
69.6000 1.8836
69.6100 0.0445
69.6200 0.0000
69.6300 0.0000
69.6400 0.3127
69.6500 0.6289
69.6600 0.5155
69.6700 2.7015
69.6800 2.5312
69.6900 0.2894
69.7000 0.8642
69.7100 1.0825
69.7200 0.9931
69.7300 0.0000
69.7400 0.0000
69.7500 0.0000
69.7600 0.0000
69.7700 0.0000
69.7800 0.6613
69.7900 0.3505
69.8000 0.0000
69.8100 0.0000
69.8200 0.0000
69.8300 0.0000
69.8400 0.0000
69.8500 0.0000
69.8600 0.4290
69.8700 0.6206
69.8800 0.6376
69.8900 0.0000
69.9000 0.3188
69.9100 0.0000
69.9200 0.0000
69.9300 0.0694
69.9400 0.9293
69.9500 0.0000
69.9600 0.3301
69.9700 0.6058
69.9800 0.0000
69.9900 0.6102
70.0000 0.3494
70.0100 0.0000
70.0200 1.0430
70.0300 0.0000
70.0400 0.0000
70.0500 0.0000
70.0600 0.0000
70.0700 0.0000
70.0800 1.4450
70.0900 2.1089
70.1000 0.4512
70.1100 0.0000
70.1200 0.0000
70.1300 1.9438
70.1400 0.0865
70.1500 0.0000
70.1600 0.0000
70.1700 2.2991
70.1800 1.6994
70.1900 0.9744
70.2000 0.5997
70.2100 1.0572
70.2200 0.2771
70.2300 3.9459
70.2400 0.2034
70.2500 0.0898
70.2600 0.9063
70.2700 0.0000
70.2800 0.0000
70.2900 1.4870
70.3000 0.5600
70.3100 0.0000
70.3200 0.0000
70.3300 0.9616
70.3400 0.0000
70.3500 0.0000
70.3600 0.0000
70.3700 0.0000
70.3800 0.3227
70.3900 0.6945
70.4000 0.5104
70.4100 1.5227
70.4200 1.0571
70.4300 0.7553
70.4400 1.1705
70.4500 1.9944
70.4600 0.0942
70.4700 1.8870
70.4800 0.0000
70.4900 0.3441
70.5000 0.6237
70.5100 0.0000
70.5200 0.9427
70.5300 0.0000
70.5400 0.0000
70.5500 0.0000
70.5600 0.6206
70.5700 0.0000
70.5800 1.3007
70.5900 0.0000
70.6000 0.9841
70.6100 1.5509
70.6200 2.6911
70.6300 0.0000
70.6400 1.0952
70.6500 0.9677
70.6600 3.8646
70.6700 1.1204
70.6800 0.9395
70.6900 0.0000
70.7000 0.9909
70.7100 1.0295
70.7200 1.9655
70.7300 2.7680
70.7400 1.0928
70.7500 1.6008
70.7600 1.3583
70.7700 1.9521
70.7800 0.0027
70.7900 0.0000
70.8000 1.6992
70.8100 0.0000
70.8200 1.3221
70.8300 0.9731
70.8400 0.0000
70.8500 1.5032
70.8600 0.4910
70.8700 1.0179
70.8800 0.9682
70.8900 0.1245
70.9000 0.8233
70.9100 0.3211
70.9200 0.6818
70.9300 0.4805
70.9400 0.4636
70.9500 0.9697
70.9600 0.0000
70.9700 0.9256
70.9800 0.1185
70.9900 0.9378
71.0000 0.1820
71.0100 1.1450
71.0200 1.0738
71.0300 0.6522
71.0400 1.0925
71.0500 0.0000
71.0600 0.0000
71.0700 0.0000
71.0800 0.0000
71.0900 0.0000
71.1000 0.0000
71.1100 0.9526
71.1200 1.0605
71.1300 0.0000
71.1400 0.5144
71.1500 0.5328
71.1600 1.3084
71.1700 1.4581
71.1800 1.1754
71.1900 0.1405
71.2000 0.0565
71.2100 1.9012
71.2200 0.0000
71.2300 0.3459
71.2400 1.0995
71.2500 1.0710
71.2600 0.4552
71.2700 0.7156
71.2800 1.2286
71.2900 0.0000
71.3000 0.0000
71.3100 0.0000
71.3200 2.1580
71.3300 0.8447
71.3400 0.0975
71.3500 0.4517
71.3600 0.5023
71.3700 2.2767
71.3800 0.6869
71.3900 1.0036
71.4000 1.9754
71.4100 1.0565
71.4200 0.1304
71.4300 0.8411
71.4400 0.0000
71.4500 1.0245
71.4600 0.0000
71.4700 0.0000
71.4800 0.9953
71.4900 0.9855
71.5000 0.5556
71.5100 0.0691
71.5200 0.3123
71.5300 0.1736
71.5400 1.3496
71.5500 1.4201
71.5600 1.4789
71.5700 0.5861
71.5800 1.3826
71.5900 0.7624
71.6000 1.7730
71.6100 1.3526
71.6200 0.9942
71.6300 0.9614
71.6400 0.0000
71.6500 0.9710
71.6600 0.0000
71.6700 0.9851
71.6800 1.5577
71.6900 0.3957
71.7000 0.2329
71.7100 0.9404
71.7200 3.5266
71.7300 0.1193
71.7400 2.5074
71.7500 0.0000
71.7600 2.1354
71.7700 0.9839
71.7800 1.0230
71.7900 1.7346
71.8000 2.3666
71.8100 0.0000
71.8200 0.0000
71.8300 0.9525
71.8400 1.1055
71.8500 2.8443
71.8600 0.0000
71.8700 0.0000
71.8800 0.0000
71.8900 0.0000
71.9000 0.0000
71.9100 1.8485
71.9200 2.8841
71.9300 2.2239
71.9400 0.0931
71.9500 1.9836
71.9600 0.9902
71.9700 2.2123
71.9800 1.5041
71.9900 1.1642
72.0000 0.0000
72.0100 0.9971
72.0200 0.0000
72.0300 0.0000
72.0400 0.0000
72.0500 0.0803
72.0600 1.9195
72.0700 0.0000
72.0800 0.0000
72.0900 0.0000
72.1000 0.5708
72.1100 0.4613
72.1200 0.9466
72.1300 0.0000
72.1400 1.0352
72.1500 0.1013
72.1600 0.9385
72.1700 0.0000
72.1800 1.0940
72.1900 2.0084
72.2000 0.9649
72.2100 0.0000
72.2200 0.9728
72.2300 1.5298
72.2400 1.3643
72.2500 2.2655
72.2600 0.0682
72.2700 0.0000
72.2800 0.2467
72.2900 1.0679
72.3000 1.6342
72.3100 0.0000
72.3200 0.0000
72.3300 0.0000
72.3400 0.9758
72.3500 0.0000
72.3600 1.0144
72.3700 0.0000
72.3800 1.0057
72.3900 0.0000
72.4000 0.0000
72.4100 0.0000
72.4200 1.0256
72.4300 0.0000
72.4400 0.0000
72.4500 0.0000
72.4600 0.0000
72.4700 1.0404
72.4800 0.1374
72.4900 1.0693
72.5000 0.7359
72.5100 0.0000
72.5200 0.9574
72.5300 0.0000
72.5400 1.7781
72.5500 0.2853
72.5600 0.0000
72.5700 0.0000
72.5800 0.0000
72.5900 0.1791
72.6000 0.8247
72.6100 0.0000
72.6200 0.9786
72.6300 0.0000
72.6400 0.0000
72.6500 1.7507
72.6600 1.2288
72.6700 1.0441
72.6800 0.0592
72.6900 4.1062
72.7000 1.8307
72.7100 1.2956
72.7200 1.4982
72.7300 4.1927
72.7400 1.2064
72.7500 1.8425
72.7600 1.7838
72.7700 2.0068
72.7800 1.2531
72.7900 0.9978
72.8000 1.6390
72.8100 3.4046
72.8200 0.0000
72.8300 0.0000
72.8400 2.0181
72.8500 1.8822
72.8600 0.6778
72.8700 1.0699
72.8800 1.0952
72.8900 3.2202
72.9000 1.9733
72.9100 0.9781
72.9200 1.2591
72.9300 1.7256
72.9400 0.9815
72.9500 0.0000
72.9600 1.0052
72.9700 2.4868
72.9800 0.4638
72.9900 0.9945
73.0000 0.0478
73.0100 0.0000
73.0200 0.0000
73.0300 0.3353
73.0400 1.6557
73.0500 0.0000
73.0600 1.8946
73.0700 0.0000
73.0800 1.0020
73.0900 0.0000
73.1000 1.1479
73.1100 0.2526
73.1200 2.6540
73.1300 0.0000
73.1400 0.0000
73.1500 0.4456
73.1600 1.0725
73.1700 0.4410
73.1800 0.7122
73.1900 1.9960
73.2000 0.3293
73.2100 0.0000
73.2200 0.0000
73.2300 0.0000
73.2400 0.3180
73.2500 0.6947
73.2600 0.0000
73.2700 0.0000
73.2800 0.0000
73.2900 0.0000
73.3000 0.0000
73.3100 0.0000
73.3200 0.0000
73.3300 0.0000
73.3400 0.0000
73.3500 0.0000
73.3600 0.0000
73.3700 0.0000
73.3800 1.7509
73.3900 0.3613
73.4000 0.8109
73.4100 2.0745
73.4200 0.0000
73.4300 0.9686
73.4400 0.0000
73.4500 0.0000
73.4600 0.0000
73.4700 0.5585
73.4800 1.5494
73.4900 0.6837
73.5000 0.3309
73.5100 0.0000
73.5200 0.0000
73.5300 0.0504
73.5400 1.0714
73.5500 2.8357
73.5600 0.0000
73.5700 0.0000
73.5800 0.0000
73.5900 0.0000
73.6000 1.6552
73.6100 0.2941
73.6200 0.0000
73.6300 0.9265
73.6400 1.9739
73.6500 0.0000
73.6600 0.0000
73.6700 0.0000
73.6800 0.0000
73.6900 0.9469
73.7000 0.0000
73.7100 0.0000
73.7200 1.0114
73.7300 1.0475
73.7400 0.9687
73.7500 0.9612
73.7600 0.0000
73.7700 0.0000
73.7800 0.0000
73.7900 0.0000
73.8000 0.0000
73.8100 0.0000
73.8200 0.0000
73.8300 0.0000
73.8400 0.9774
73.8500 1.0711
73.8600 1.1032
73.8700 0.8485
73.8800 0.0000
73.8900 0.8912
73.9000 1.0907
73.9100 0.6548
73.9200 0.3708
73.9300 0.0000
73.9400 0.0000
73.9500 1.9473
73.9600 0.0000
73.9700 0.0000
73.9800 0.0000
73.9900 0.0000
74.0000 0.0000
74.0100 1.9395
74.0200 0.6692
74.0300 5.3023
74.0400 0.8550
74.0500 0.1328
74.0600 1.1105
74.0700 2.8039
74.0800 0.5246
74.0900 1.6329
74.1000 0.0000
74.1100 0.0000
74.1200 0.0000
74.1300 1.0940
74.1400 0.7595
74.1500 0.1787
74.1600 0.0000
74.1700 0.0000
74.1800 0.0000
74.1900 2.0133
74.2000 1.3532
74.2100 0.6320
74.2200 0.0000
74.2300 0.6728
74.2400 0.3480
74.2500 0.8877
74.2600 0.1593
74.2700 0.0000
74.2800 1.9099
74.2900 0.9452
74.3000 0.0000
74.3100 0.4095
74.3200 1.5372
74.3300 0.0000
74.3400 0.0000
74.3500 0.8060
74.3600 1.0679
74.3700 0.1099
74.3800 0.9313
74.3900 0.1649
74.4000 0.8086
74.4100 0.0000
74.4200 0.0000
74.4300 0.5449
74.4400 0.4513
74.4500 0.0000
74.4600 0.0000
74.4700 0.0000
74.4800 0.0000
74.4900 0.0000
74.5000 1.4217
74.5100 1.8989
74.5200 0.6978
74.5300 0.0000
74.5400 0.0000
74.5500 0.0000
74.5600 0.0000
74.5700 0.9099
74.5800 0.1378
74.5900 1.1584
74.6000 1.9039
74.6100 0.2457
74.6200 0.7529
74.6300 0.0000
74.6400 0.0000
74.6500 0.9845
74.6600 0.0000
74.6700 0.7827
74.6800 3.0826
74.6900 1.1570
74.7000 0.0000
74.7100 0.0000
74.7200 0.9892
74.7300 1.3810
74.7400 0.6223
74.7500 0.0000
74.7600 0.0000
74.7700 0.0000
74.7800 0.0000
74.7900 0.0000
74.8000 0.0000
74.8100 0.0000
74.8200 0.9898
74.8300 0.9825
74.8400 0.9936
74.8500 0.0000
74.8600 0.0000
74.8700 0.6836
74.8800 0.2925
74.8900 0.8221
74.9000 1.0480
74.9100 1.0367
74.9200 0.0000
74.9300 0.2537
74.9400 0.6977
74.9500 1.9618
74.9600 1.5640
74.9700 0.4643
74.9800 0.0000
74.9900 0.0000
75.0000 0.0000
75.0100 0.9511
75.0200 0.0000
75.0300 0.0000
75.0400 1.2431
75.0500 0.6542
75.0600 0.4773
75.0700 0.4893
75.0800 0.9931
75.0900 0.0000
75.1000 0.0000
75.1100 0.9695
75.1200 0.0344
75.1300 0.0000
75.1400 0.0000
75.1500 0.9893
75.1600 0.0000
75.1700 0.5315
75.1800 1.0976
75.1900 0.3757
75.2000 2.0300
75.2100 0.0000
75.2200 1.9526
75.2300 0.0000
75.2400 0.0000
75.2500 2.0873
75.2600 3.1780
75.2700 3.0813
75.2800 1.5480
75.2900 2.3366
75.3000 0.6637
75.3100 2.5553
75.3200 0.4380
75.3300 1.0500
75.3400 0.9740
75.3500 0.2237
75.3600 1.7376
75.3700 0.9735
75.3800 0.9717
75.3900 0.9683
75.4000 0.0000
75.4100 1.0565
75.4200 0.0000
75.4300 0.9290
75.4400 0.9868
75.4500 0.0000
75.4600 0.0000
75.4700 0.0000
75.4800 0.0000
75.4900 0.0000
75.5000 0.0000
75.5100 1.0031
75.5200 0.9691
75.5300 0.0000
75.5400 0.0000
75.5500 0.0000
75.5600 0.2138
75.5700 0.7874
75.5800 0.3922
75.5900 1.5643
75.6000 1.6083
75.6100 0.4042
75.6200 0.0000
75.6300 0.9868
75.6400 0.0000
75.6500 0.0000
75.6600 0.9760
75.6700 0.0000
75.6800 0.0000
75.6900 0.0000
75.7000 0.0000
75.7100 0.0000
75.7200 1.3763
75.7300 1.4988
75.7400 0.0000
75.7500 0.9828
75.7600 1.2043
75.7700 1.8325
75.7800 0.0000
75.7900 0.0000
75.8000 0.0000
75.8100 1.6121
75.8200 1.7180
75.8300 2.5618
75.8400 0.0000
75.8500 2.0079
75.8600 1.1419
75.8700 3.0417
75.8800 2.0622
75.8900 3.9618
75.9000 1.4005
75.9100 1.6612
75.9200 1.1972
75.9300 0.7599
75.9400 0.9870
75.9500 0.0000
75.9600 2.9130
75.9700 0.0000
75.9800 0.0000
75.9900 0.0000
76.0000 0.0000
76.0100 0.4636
76.0200 2.5189
76.0300 0.0000
76.0400 2.7420
76.0500 0.2593
76.0600 1.9475
76.0700 0.0249
76.0800 0.8772
76.0900 0.4134
76.1000 1.4968
76.1100 0.0000
76.1200 0.0000
76.1300 0.0000
76.1400 0.0000
76.1500 0.0000
76.1600 0.0000
76.1700 3.9518
76.1800 0.1156
76.1900 1.0066
76.2000 0.0000
76.2100 2.0051
76.2200 0.4447
76.2300 6.5632
76.2400 0.0000
76.2500 0.0000
76.2600 0.0000
76.2700 1.9146
76.2800 0.9727
76.2900 0.1099
76.3000 0.9436
76.3100 0.0000
76.3200 0.9846
76.3300 0.0000
76.3400 0.5635
76.3500 1.0460
76.3600 1.0503
76.3700 0.2273
76.3800 1.9745
76.3900 0.0478
76.4000 0.0000
76.4100 0.9734
76.4200 0.0000
76.4300 0.9203
76.4400 0.0000
76.4500 0.6043
76.4600 0.3789
76.4700 0.0000
76.4800 0.9356
76.4900 0.1065
76.5000 1.0760
76.5100 1.1066
76.5200 1.4367
76.5300 1.8239
76.5400 1.6187
76.5500 0.0000
76.5600 0.0000
76.5700 1.5480
76.5800 1.3448
76.5900 1.1029
76.6000 0.9722
76.6100 0.1383
76.6200 0.9691
76.6300 0.0000
76.6400 1.1960
76.6500 3.7379
76.6600 1.2133
76.6700 1.5738
76.6800 1.0946
76.6900 0.2067
76.7000 0.9879
76.7100 1.0187
76.7200 0.1659
76.7300 1.8699
76.7400 0.0000
76.7500 0.0000
76.7600 0.0000
76.7700 0.0000
76.7800 0.0000
76.7900 0.9414
76.8000 0.0000
76.8100 0.0000
76.8200 0.0000
76.8300 1.1694
76.8400 1.4732
76.8500 2.5448
76.8600 0.0000
76.8700 0.0000
76.8800 0.0000
76.8900 0.0000
76.9000 0.0000
76.9100 0.9567
76.9200 0.0432
76.9300 1.0338
76.9400 0.0000
76.9500 1.0062
76.9600 0.4608
76.9700 0.6140
76.9800 0.0000
76.9900 0.0000
77.0000 0.0000
77.0100 0.0000
77.0200 0.0000
77.0300 0.0000
77.0400 0.1890
77.0500 0.8388
77.0600 0.0000
77.0700 0.0000
77.0800 0.0000
77.0900 0.0000
77.1000 0.0000
77.1100 0.0000
77.1200 0.0000
77.1300 2.2763
77.1400 0.1560
77.1500 0.8837
77.1600 1.2127
77.1700 0.7776
77.1800 0.5930
77.1900 0.5006
77.2000 2.0921
77.2100 0.7605
77.2200 0.2039
77.2300 0.9379
77.2400 0.9652
77.2500 0.0000
77.2600 0.2683
77.2700 3.0832
77.2800 1.0295
77.2900 0.5282
77.3000 0.9752
77.3100 0.7244
77.3200 0.2645
77.3300 1.9433
77.3400 1.0713
77.3500 3.0658
77.3600 0.9017
77.3700 0.0000
77.3800 0.0000
77.3900 0.0000
77.4000 0.0000
77.4100 0.0000
77.4200 0.0000
77.4300 0.0000
77.4400 0.0000
77.4500 0.0000
77.4600 0.0000
77.4700 0.9312
77.4800 0.0000
77.4900 0.0000
77.5000 0.9827
77.5100 0.0000
77.5200 0.7714
77.5300 0.3078
77.5400 0.0000
77.5500 1.0337
77.5600 0.0000
77.5700 1.0421
77.5800 0.9860
77.5900 0.0000
77.6000 0.0000
77.6100 2.0696
77.6200 1.8522
77.6300 1.4857
77.6400 1.4739
77.6500 0.0000
77.6600 0.9876
77.6700 0.1286
77.6800 0.8552
77.6900 0.0000
77.7000 0.0000
77.7100 0.5137
77.7200 3.6009
77.7300 0.7714
77.7400 0.7652
77.7500 1.1652
77.7600 0.9226
77.7700 1.0098
77.7800 1.7412
77.7900 0.9763
77.8000 1.6639
77.8100 4.3982
77.8200 0.5189
77.8300 2.1430
77.8400 0.0000
77.8500 0.9596
77.8600 0.0000
77.8700 1.0573
77.8800 2.0799
77.8900 1.6886
77.9000 0.0000
77.9100 0.0000
77.9200 0.0000
77.9300 0.0000
77.9400 0.0000
77.9500 0.0000
77.9600 0.9794
77.9700 0.0000
77.9800 1.0300
77.9900 0.9825
78.0000 0.0000
78.0100 0.0000
78.0200 0.0000
78.0300 1.0223
78.0400 1.6331
78.0500 0.3876
78.0600 0.9175
78.0700 0.0000
78.0800 0.0009
78.0900 2.0965
78.1000 0.8791
78.1100 2.0336
78.1200 0.0000
78.1300 0.0000
78.1400 0.5408
78.1500 0.4126
78.1600 1.9725
78.1700 0.0000
78.1800 0.9499
78.1900 0.9821
78.2000 0.0000
78.2100 0.0000
78.2200 0.0000
78.2300 0.0000
78.2400 0.0000
78.2500 0.5954
78.2600 2.9900
78.2700 0.2945
78.2800 1.0089
78.2900 0.9778
78.3000 1.1300
78.3100 0.0000
78.3200 0.2660
78.3300 1.0908
78.3400 1.6039
78.3500 2.3523
78.3600 0.9770
78.3700 0.0000
78.3800 1.9583
78.3900 0.0000
78.4000 0.9769
78.4100 0.0000
78.4200 1.0452
78.4300 0.0000
78.4400 0.4134
78.4500 1.6204
78.4600 1.0242
78.4700 0.0000
78.4800 0.0000
78.4900 0.9785
78.5000 2.0243
78.5100 0.0567
78.5200 1.0471
78.5300 0.8539
78.5400 0.0000
78.5500 0.9690
78.5600 0.0000
78.5700 1.5699
78.5800 2.0355
78.5900 0.2800
78.6000 0.0000
78.6100 0.0000
78.6200 1.0297
78.6300 0.0000
78.6400 0.0000
78.6500 0.0000
78.6600 0.5116
78.6700 0.5637
78.6800 0.0000
78.6900 0.9875
78.7000 0.8349
78.7100 1.0577
78.7200 2.0676
78.7300 0.1370
78.7400 0.8667
78.7500 1.3485
78.7600 1.6510
78.7700 0.0000
78.7800 0.0000
78.7900 0.0000
78.8000 0.0000
78.8100 2.7551
78.8200 0.2170
78.8300 1.0111
78.8400 0.0000
78.8500 1.9886
78.8600 0.9727
78.8700 1.0591
78.8800 0.0000
78.8900 0.0000
78.9000 0.0000
78.9100 1.9614
78.9200 0.0000
78.9300 1.9809
78.9400 1.9491
78.9500 1.3923
78.9600 1.8003
78.9700 1.0822
78.9800 1.1142
78.9900 0.5161
79.0000 0.9887
79.0100 0.9784
79.0200 0.0000
79.0300 0.0000
79.0400 0.9830
79.0500 1.9724
79.0600 0.0000
79.0700 0.0000
79.0800 0.0000
79.0900 0.0000
79.1000 0.0000
79.1100 0.0000
79.1200 0.0000
79.1300 0.0000
79.1400 0.0000
79.1500 0.0000
79.1600 0.1869
79.1700 1.7298
79.1800 0.9642
79.1900 0.0000
79.2000 0.0000
79.2100 0.0000
79.2200 0.0000
79.2300 0.8262
79.2400 0.1387
79.2500 0.0442
79.2600 0.9370
79.2700 0.2437
79.2800 0.7986
79.2900 1.0455
79.3000 1.6114
79.3100 0.4965
79.3200 0.7370
79.3300 0.3072
79.3400 1.0186
79.3500 0.0000
79.3600 0.0000
79.3700 0.0000
79.3800 0.0000
79.3900 0.0000
79.4000 0.0000
79.4100 0.0000
79.4200 0.9778
79.4300 0.9759
79.4400 0.0000
79.4500 0.9324
79.4600 0.0670
79.4700 0.3274
79.4800 3.2607
79.4900 2.6494
79.5000 0.6603
79.5100 1.5095
79.5200 1.5448
79.5300 0.7474
79.5400 2.0542
79.5500 0.2114
79.5600 0.9641
79.5700 0.0950
79.5800 0.9465
79.5900 0.0000
79.6000 0.0000
79.6100 0.9790
79.6200 2.2660
79.6300 0.6161
79.6400 0.3587
79.6500 0.0000
79.6600 0.0000
79.6700 1.0146
79.6800 0.0000
79.6900 0.3946
79.7000 2.5844
79.7100 1.1684
79.7200 3.3127
79.7300 0.5084
79.7400 1.0340
79.7500 0.7619
79.7600 1.1923
79.7700 2.8964
79.7800 0.0465
79.7900 0.0000
79.8000 0.0000
79.8100 0.0000
79.8200 0.1448
79.8300 0.1955
79.8400 1.0297
79.8500 1.4622
79.8600 1.1252
79.8700 1.1952
79.8800 0.9798
79.8900 0.0000
79.9000 0.9656
79.9100 0.9876
79.9200 0.7249
79.9300 1.2372
79.9400 0.0000
79.9500 0.0000
79.9600 0.0000
79.9700 2.5124
79.9800 0.4735
79.9900 1.0257
80.0000 0.0000
80.0100 0.0000
80.0200 0.0000
80.0300 0.0000
80.0400 0.0000
80.0500 0.0000
80.0600 2.0847
80.0700 0.0000
80.0800 0.0000
80.0900 1.0020
80.1000 0.0943
80.1100 2.0769
80.1200 1.8211
80.1300 0.0000
80.1400 0.0000
80.1500 0.9826
80.1600 0.6677
80.1700 1.0420
80.1800 1.1620
80.1900 1.3024
80.2000 1.1327
80.2100 0.9899
80.2200 1.5484
80.2300 2.3775
80.2400 1.7472
80.2500 2.2099
80.2600 4.4405
80.2700 3.2306
80.2800 4.0989
80.2900 0.9439
80.3000 1.8627
80.3100 1.1603
80.3200 3.0994
80.3300 0.8348
80.3400 0.0000
80.3500 0.0000
80.3600 0.0000
80.3700 0.0000
80.3800 1.6850
80.3900 0.2884
80.4000 0.0000
80.4100 0.0000
80.4200 0.0000
80.4300 0.0000
80.4400 0.0000
80.4500 0.0000
80.4600 2.8921
80.4700 1.0317
80.4800 0.0000
80.4900 0.0000
80.5000 0.0000
80.5100 0.0000
80.5200 0.0000
80.5300 0.0000
80.5400 0.9742
80.5500 0.6715
80.5600 1.4516
80.5700 0.0000
80.5800 1.6606
80.5900 1.4240
80.6000 0.0000
80.6100 0.0000
80.6200 0.9640
80.6300 0.0226
80.6400 0.0000
80.6500 1.0169
80.6600 0.3432
80.6700 2.6308
80.6800 0.5232
80.6900 0.4396
80.7000 0.0000
80.7100 0.0000
80.7200 0.9652
80.7300 0.0000
80.7400 0.0000
80.7500 0.0000
80.7600 0.3110
80.7700 1.7034
80.7800 0.4821
80.7900 1.1142
80.8000 0.4365
80.8100 0.0000
80.8200 0.0000
80.8300 1.0140
80.8400 1.0223
80.8500 1.0426
80.8600 0.2470
80.8700 1.7316
80.8800 1.3960
80.8900 0.5419
80.9000 0.9904
80.9100 0.0000
80.9200 0.0000
80.9300 0.0000
80.9400 0.0000
80.9500 1.9773
80.9600 0.0000
80.9700 0.0000
80.9800 0.7508
80.9900 1.2500
81.0000 0.0000
81.0100 0.6623
81.0200 2.1361
81.0300 1.2393
81.0400 0.0000
81.0500 0.0000
81.0600 0.0000
81.0700 0.2281
81.0800 0.7866
81.0900 0.0000
81.1000 0.5398
81.1100 0.5229
81.1200 0.0000
81.1300 0.9719
81.1400 1.0348
81.1500 0.0000
81.1600 1.0034
81.1700 0.0000
81.1800 0.0000
81.1900 0.0000
81.2000 0.9559
81.2100 0.5332
81.2200 0.6501
81.2300 1.0929
81.2400 1.3640
81.2500 0.2803
81.2600 0.0000
81.2700 0.0000
81.2800 1.2665
81.2900 1.7536
81.3000 0.4436
81.3100 0.6770
81.3200 0.0000
81.3300 0.0000
81.3400 0.7477
81.3500 1.1269
81.3600 0.1383
81.3700 0.0000
81.3800 1.0452
81.3900 0.0000
81.4000 0.0000
81.4100 0.0000
81.4200 0.0000
81.4300 0.0000
81.4400 0.0000
81.4500 0.8071
81.4600 1.9889
81.4700 0.0888
81.4800 0.9491
81.4900 0.0000
81.5000 0.0000
81.5100 0.0000
81.5200 0.0000
81.5300 0.0000
81.5400 1.0148
81.5500 0.0000
81.5600 0.0000
81.5700 0.0000
81.5800 0.0386
81.5900 0.9542
81.6000 0.0000
81.6100 0.0000
81.6200 0.4430
81.6300 1.0912
81.6400 0.4506
81.6500 0.0000
81.6600 1.5946
81.6700 1.4921
81.6800 1.0005
81.6900 1.0195
81.7000 2.8497
81.7100 0.0000
81.7200 0.9494
81.7300 1.0215
81.7400 1.0992
81.7500 0.0000
81.7600 1.1075
81.7700 1.9850
81.7800 0.9476
81.7900 2.1263
81.8000 1.0507
81.8100 1.9365
81.8200 0.0000
81.8300 2.0601
81.8400 0.4970
81.8500 1.0956
81.8600 2.0871
81.8700 1.2845
81.8800 0.0000
81.8900 1.0208
81.9000 1.0007
81.9100 0.1718
81.9200 2.0260
81.9300 0.0000
81.9400 0.0000
81.9500 1.5376
81.9600 4.4306
81.9700 3.1430
81.9800 1.8751
81.9900 0.1932
82.0000 0.9616
82.0100 0.2945
82.0200 2.9092
82.0300 3.8454
82.0400 0.0000
82.0500 0.5033
82.0600 1.1139
82.0700 2.9949
82.0800 2.1347
82.0900 0.2471
82.1000 4.7420
82.1100 2.8014
82.1200 1.2317
82.1300 4.3876
82.1400 4.1825
82.1500 4.2102
82.1600 3.6039
82.1700 2.1093
82.1800 3.9135
82.1900 1.4134
82.2000 1.9246
82.2100 1.1745
82.2200 4.0837
82.2300 1.8483
82.2400 8.0989
82.2500 7.7365
82.2600 2.5949
82.2700 2.2342
82.2800 3.5230
82.2900 0.6091
82.3000 2.9559
82.3100 1.6374
82.3200 1.0923
82.3300 1.9954
82.3400 0.2296
82.3500 0.8490
82.3600 1.0627
82.3700 0.0000
82.3800 1.0004
82.3900 0.6540
82.4000 1.7745
82.4100 0.4174
82.4200 0.0000
82.4300 1.0620
82.4400 0.0000
82.4500 0.0000
82.4600 1.0259
82.4700 0.0000
82.4800 0.0000
82.4900 0.2047
82.5000 0.1209
82.5100 1.3398
82.5200 0.2989
82.5300 2.9903
82.5400 0.9648
82.5500 1.1978
82.5600 3.1686
82.5700 0.8187
82.5800 0.0000
82.5900 0.0000
82.6000 0.0000
82.6100 0.0000
82.6200 0.8180
82.6300 1.9635
82.6400 0.0954
82.6500 0.8764
82.6600 0.2476
82.6700 0.8126
82.6800 0.9635
82.6900 0.0000
82.7000 1.2052
82.7100 3.0856
82.7200 3.8587
82.7300 1.7112
82.7400 4.0322
82.7500 0.0339
82.7600 1.1703
82.7700 0.0000
82.7800 1.9551
82.7900 0.0000
82.8000 0.0000
82.8100 0.0000
82.8200 0.0000
82.8300 0.8049
82.8400 1.1016
82.8500 1.1676
82.8600 0.9755
82.8700 1.0184
82.8800 0.0000
82.8900 2.2823
82.9000 2.8389
82.9100 0.9565
82.9200 0.0000
82.9300 0.0000
82.9400 0.0000
82.9500 0.0000
82.9600 0.1273
82.9700 1.9804
82.9800 0.8348
82.9900 0.0000
83.0000 0.0000
83.0100 1.5013
83.0200 0.4610
83.0300 1.0198
83.0400 0.2662
83.0500 1.0181
83.0600 1.6503
83.0700 0.0000
83.0800 0.0000
83.0900 0.0000
83.1000 0.3841
83.1100 1.6170
83.1200 0.5769
83.1300 2.0876
83.1400 0.3161
83.1500 0.0000
83.1600 0.9746
83.1700 1.0704
83.1800 0.1441
83.1900 1.8589
83.2000 0.0000
83.2100 0.0000
83.2200 0.5324
83.2300 0.4922
83.2400 0.9822
83.2500 0.9316
83.2600 0.0000
83.2700 0.0000
83.2800 0.0000
83.2900 0.1744
83.3000 0.7926
83.3100 0.3499
83.3200 0.5980
83.3300 0.0000
83.3400 1.0289
83.3500 0.7489
83.3600 0.2540
83.3700 0.0000
83.3800 1.0568
83.3900 0.9807
83.4000 1.0027
83.4100 0.9446
83.4200 0.9884
83.4300 0.4939
83.4400 0.4902
83.4500 0.0000
83.4600 0.0000
83.4700 1.7519
83.4800 0.2401
83.4900 0.0000
83.5000 0.0000
83.5100 0.2589
83.5200 1.7151
83.5300 0.0000
83.5400 0.0000
83.5500 0.9700
83.5600 1.0143
83.5700 0.0000
83.5800 0.9628
83.5900 0.0000
83.6000 1.1590
83.6100 1.0902
83.6200 0.8114
83.6300 0.1153
83.6400 0.6988
83.6500 0.7445
83.6600 3.0679
83.6700 0.5288
83.6800 0.8770
83.6900 2.0199
83.7000 1.1991
83.7100 1.2819
83.7200 1.9768
83.7300 0.7190
83.7400 0.0000
83.7500 0.5069
83.7600 0.4632
83.7700 0.9856
83.7800 0.0000
83.7900 0.8534
83.8000 0.0947
83.8100 0.9915
83.8200 0.0000
83.8300 0.0000
83.8400 0.0000
83.8500 0.9532
83.8600 1.0904
83.8700 2.0169
83.8800 0.0000
83.8900 1.9140
83.9000 0.1725
83.9100 0.9668
83.9200 0.1362
83.9300 0.9348
83.9400 0.9656
83.9500 0.0000
83.9600 0.9812
83.9700 0.0000
83.9800 0.6803
83.9900 1.8282
84.0000 0.4111
84.0100 0.9735
84.0200 0.0911
84.0300 1.8673
84.0400 0.0000
84.0500 2.0695
84.0600 1.0005
84.0700 0.0000
84.0800 0.9841
84.0900 0.7118
84.1000 3.0478
84.1100 2.3811
84.1200 1.1068
84.1300 0.6339
84.1400 0.0000
84.1500 0.0000
84.1600 1.0023
84.1700 0.0000
84.1800 0.0000
84.1900 0.6834
84.2000 0.3278
84.2100 2.0066
84.2200 0.0000
84.2300 0.0526
84.2400 0.9316
84.2500 1.1542
84.2600 1.7188
84.2700 0.0000
84.2800 0.0000
84.2900 0.0000
84.3000 0.0000
84.3100 1.6189
84.3200 0.3833
84.3300 0.0000
84.3400 0.0000
84.3500 0.1868
84.3600 2.7241
84.3700 0.3541
84.3800 0.5904
84.3900 0.0000
84.4000 0.6273
84.4100 0.3258
84.4200 0.0000
84.4300 1.0419
84.4400 1.0372
84.4500 0.0000
84.4600 0.9846
84.4700 0.0000
84.4800 0.0000
84.4900 0.0000
84.5000 0.0000
84.5100 0.0000
84.5200 0.0000
84.5300 0.0000
84.5400 0.0000
84.5500 0.0000
84.5600 0.1776
84.5700 0.8767
84.5800 0.9895
84.5900 0.0000
84.6000 0.5253
84.6100 1.0510
84.6200 1.3287
84.6300 0.0000
84.6400 1.0187
84.6500 0.0365
84.6600 1.9938
84.6700 2.2634
84.6800 0.7530
84.6900 1.7012
84.7000 3.0847
84.7100 1.6955
84.7200 0.8468
84.7300 0.8602
84.7400 1.2393
84.7500 2.9587
84.7600 0.1171
84.7700 0.0000
84.7800 0.0000
84.7900 0.0000
84.8000 0.4205
84.8100 0.5486
84.8200 1.1056
84.8300 0.0000
84.8400 0.0000
84.8500 1.9180
84.8600 1.0757
84.8700 0.0000
84.8800 1.0393
84.8900 1.0002
84.9000 0.9562
84.9100 0.0000
84.9200 0.0000
84.9300 0.0000
84.9400 0.0000
84.9500 0.8181
84.9600 0.1446
84.9700 0.0000
84.9800 0.1432
84.9900 1.1579
85.0000 0.7632
85.0100 0.4250
85.0200 0.5962
85.0300 0.0000
85.0400 0.7031
85.0500 0.3022
85.0600 0.8615
85.0700 2.0233
85.0800 0.0174
85.0900 0.0000
85.1000 0.0000
85.1100 0.0000
85.1200 0.9629
85.1300 0.0000
85.1400 0.6420
85.1500 1.0799
85.1600 1.2148
85.1700 0.9970
85.1800 0.0791
85.1900 0.0000
85.2000 0.0000
85.2100 0.0000
85.2200 0.9629
85.2300 0.0000
85.2400 0.9465
85.2500 1.1094
85.2600 0.0000
85.2700 0.0000
85.2800 0.0000
85.2900 0.0000
85.3000 0.0000
85.3100 1.2324
85.3200 0.7205
85.3300 0.0000
85.3400 1.0057
85.3500 0.9799
85.3600 1.0012
85.3700 0.0000
85.3800 1.0004
85.3900 0.0000
85.4000 0.0000
85.4100 0.1814
85.4200 0.7638
85.4300 1.0776
85.4400 0.9946
85.4500 0.0000
85.4600 0.0000
85.4700 1.0056
85.4800 0.0000
85.4900 1.0012
85.5000 0.0000
85.5100 1.0010
85.5200 0.0000
85.5300 0.0000
85.5400 0.0000
85.5500 0.9633
85.5600 1.0211
85.5700 1.3966
85.5800 1.4096
85.5900 2.1207
85.6000 0.1112
85.6100 0.0000
85.6200 0.1680
85.6300 0.7960
85.6400 0.0000
85.6500 0.0000
85.6600 0.0000
85.6700 0.0000
85.6800 0.0000
85.6900 0.0000
85.7000 0.0000
85.7100 0.0000
85.7200 0.0000
85.7300 0.0000
85.7400 0.2931
85.7500 0.6616
85.7600 0.9893
85.7700 1.1339
85.7800 0.9740
85.7900 0.9203
85.8000 0.2142
85.8100 0.0000
85.8200 0.0000
85.8300 0.0000
85.8400 0.0000
85.8500 0.9935
85.8600 0.0000
85.8700 0.0000
85.8800 0.0000
85.8900 0.0000
85.9000 0.0000
85.9100 0.0000
85.9200 1.0069
85.9300 1.0548
85.9400 0.9836
85.9500 1.3412
85.9600 1.7211
85.9700 0.0000
85.9800 0.9867
85.9900 0.0000
86.0000 0.0000
86.0100 0.0000
86.0200 0.0000
86.0300 0.0422
86.0400 1.1847
86.0500 1.7174
86.0600 0.0000
86.0700 0.4204
86.0800 1.0604
86.0900 0.4538
86.1000 0.9559
86.1100 0.0000
86.1200 1.7476
86.1300 0.2073
86.1400 1.9454
86.1500 0.9713
86.1600 0.0000
86.1700 0.0000
86.1800 0.0000
86.1900 0.0000
86.2000 1.6899
86.2100 1.1140
86.2200 0.2552
86.2300 0.0000
86.2400 1.0270
86.2500 0.9266
86.2600 0.0000
86.2700 0.0000
86.2800 0.0000
86.2900 0.0000
86.3000 0.0000
86.3100 0.0000
86.3200 0.0000
86.3300 1.9085
86.3400 1.1090
86.3500 1.0817
86.3600 0.9268
86.3700 0.0000
86.3800 0.9858
86.3900 0.0000
86.4000 0.0000
86.4100 0.0000
86.4200 0.0000
86.4300 0.8092
86.4400 1.0515
86.4500 1.1315
86.4600 1.0085
86.4700 0.0000
86.4800 0.0000
86.4900 0.0000
86.5000 1.9839
86.5100 1.0429
86.5200 0.0000
86.5300 2.5479
86.5400 0.4840
86.5500 0.0000
86.5600 0.0000
86.5700 0.9757
86.5800 0.0000
86.5900 0.0000
86.6000 0.0000
86.6100 0.0000
86.6200 0.6260
86.6300 1.3849
86.6400 0.0000
86.6500 0.9730
86.6600 0.0000
86.6700 0.0897
86.6800 0.9574
86.6900 0.0000
86.7000 1.1658
86.7100 0.0000
86.7200 0.0000
86.7300 0.0000
86.7400 0.0000
86.7500 0.0000
86.7600 0.0000
86.7700 1.0413
86.7800 1.9301
86.7900 0.0000
86.8000 1.0075
86.8100 0.0000
86.8200 0.0000
86.8300 1.0513
86.8400 0.0000
86.8500 1.0336
86.8600 0.8368
86.8700 1.2031
86.8800 0.9867
86.8900 0.0000
86.9000 0.2720
86.9100 1.1277
86.9200 0.6286
86.9300 0.5446
86.9400 0.4641
86.9500 0.0000
86.9600 0.0000
86.9700 0.0000
86.9800 0.0000
86.9900 0.0000
87.0000 0.1949
87.0100 0.7765
87.0200 0.0000
87.0300 2.4986
87.0400 0.5089
87.0500 0.0000
87.0600 0.7816
87.0700 1.1722
87.0800 0.0000
87.0900 0.0484
87.1000 0.9162
87.1100 0.2523
87.1200 0.8034
87.1300 0.9898
87.1400 1.0321
87.1500 1.9129
87.1600 0.0000
87.1700 1.0407
87.1800 1.7757
87.1900 3.1272
87.2000 1.1191
87.2100 0.9354
87.2200 0.5466
87.2300 1.4244
87.2400 1.0051
87.2500 0.5786
87.2600 0.4537
87.2700 1.9576
87.2800 0.0000
87.2900 0.0000
87.3000 0.0301
87.3100 1.9601
87.3200 0.0000
87.3300 0.3176
87.3400 2.0574
87.3500 1.0891
87.3600 0.4791
87.3700 0.0000
87.3800 0.7808
87.3900 0.2105
87.4000 0.9859
87.4100 1.0380
87.4200 0.0000
87.4300 0.2493
87.4400 0.7111
87.4500 0.0000
87.4600 1.5485
87.4700 1.4302
87.4800 3.5403
87.4900 0.5240
87.5000 0.9709
87.5100 0.0000
87.5200 1.0217
87.5300 0.1962
87.5400 1.7377
87.5500 0.0000
87.5600 0.5072
87.5700 0.5348
87.5800 0.0000
87.5900 0.0000
87.6000 1.0255
87.6100 0.0000
87.6200 0.9825
87.6300 0.0000
87.6400 1.2412
87.6500 0.9119
87.6600 0.0000
87.6700 1.0162
87.6800 0.0000
87.6900 0.7094
87.7000 0.2844
87.7100 1.2646
87.7200 0.0309
87.7300 0.6355
87.7400 0.1865
87.7500 2.0763
87.7600 0.6906
87.7700 0.0000
87.7800 0.5515
87.7900 2.1502
87.8000 0.3540
87.8100 0.0000
87.8200 0.0000
87.8300 1.9773
87.8400 0.0000
87.8500 0.9857
87.8600 1.0911
87.8700 1.9992
87.8800 0.0000
87.8900 1.9837
87.9000 0.0000
87.9100 0.9653
87.9200 0.0000
87.9300 1.0230
87.9400 0.0829
87.9500 1.0417
87.9600 0.2577
87.9700 1.4149
87.9800 1.2448
87.9900 0.0000
88.0000 0.5942
88.0100 1.0977
88.0200 0.2760
88.0300 0.9235
88.0400 0.0767
88.0500 0.0000
88.0600 0.0000
88.0700 0.2910
88.0800 0.6763
88.0900 0.0000
88.1000 0.0000
88.1100 0.0000
88.1200 1.4837
88.1300 1.4398
88.1400 0.0000
88.1500 0.0000
88.1600 0.0000
88.1700 1.2085
88.1800 0.7481
88.1900 0.0000
88.2000 0.0000
88.2100 0.0000
88.2200 0.9726
88.2300 1.0169
88.2400 0.9053
88.2500 0.0944
88.2600 0.0000
88.2700 0.1896
88.2800 0.8148
88.2900 0.0000
88.3000 0.0000
88.3100 0.9657
88.3200 0.0000
88.3300 0.0000
88.3400 0.9694
88.3500 0.9512
88.3600 0.0565
88.3700 0.1318
88.3800 1.8448
88.3900 0.3623
88.4000 2.1701
88.4100 1.4929
88.4200 0.0000
88.4300 0.0000
88.4400 0.0000
88.4500 0.0000
88.4600 1.8914
88.4700 1.0653
88.4800 0.0000
88.4900 0.0000
88.5000 0.0000
88.5100 1.0201
88.5200 0.0000
88.5300 0.0000
88.5400 0.0000
88.5500 0.8047
88.5600 2.0860
88.5700 1.0259
88.5800 0.0000
88.5900 1.9757
88.6000 0.0000
88.6100 0.0000
88.6200 0.0000
88.6300 0.6321
88.6400 0.4448
88.6500 2.7599
88.6600 0.2337
88.6700 1.9392
88.6800 1.0754
88.6900 0.0000
88.7000 0.0000
88.7100 0.9691
88.7200 0.0000
88.7300 0.9729
88.7400 0.6127
88.7500 0.3672
88.7600 0.0000
88.7700 0.0000
88.7800 0.0000
88.7900 1.0306
88.8000 0.0000
88.8100 0.0000
88.8200 2.3397
88.8300 0.6222
88.8400 0.0000
88.8500 0.9873
88.8600 0.0000
88.8700 0.8687
88.8800 0.1504
88.8900 0.0000
88.9000 0.0000
88.9100 1.4093
88.9200 1.5178
88.9300 2.4451
88.9400 1.0835
88.9500 1.0542
88.9600 0.3698
88.9700 0.0000
88.9800 1.8130
88.9900 1.1746
89.0000 2.0023
89.0100 0.0000
89.0200 0.0000
89.0300 2.4860
89.0400 0.6203
89.0500 0.5295
89.0600 0.4306
89.0700 0.0000
89.0800 0.0000
89.0900 1.9555
89.1000 0.0000
89.1100 1.0904
89.1200 0.9981
89.1300 0.0000
89.1400 0.0000
89.1500 0.9902
89.1600 0.5821
89.1700 1.0971
89.1800 0.3195
89.1900 1.0287
89.2000 0.0000
89.2100 0.0000
89.2200 0.0000
89.2300 0.0000
89.2400 0.0000
89.2500 0.9290
89.2600 0.5609
89.2700 1.1016
89.2800 1.0738
89.2900 0.2733
89.3000 1.8497
89.3100 0.0830
89.3200 0.9969
89.3300 0.1950
89.3400 0.8072
89.3500 0.0000
89.3600 0.4777
89.3700 0.5222
89.3800 0.0000
89.3900 0.0000
89.4000 1.8570
89.4100 0.1517
89.4200 0.9915
89.4300 0.2670
89.4400 1.6613
89.4500 0.0000
89.4600 0.0000
89.4700 1.0397
89.4800 0.9927
89.4900 0.0000
89.5000 0.0000
89.5100 0.0000
89.5200 0.0000
89.5300 0.0000
89.5400 0.9696
89.5500 0.0000
89.5600 0.0000
89.5700 1.5234
89.5800 0.5338
89.5900 0.0000
89.6000 1.4737
89.6100 1.5411
89.6200 0.0000
89.6300 0.0000
89.6400 0.0000
89.6500 0.0000
89.6600 0.0000
89.6700 0.0000
89.6800 0.0000
89.6900 0.5940
89.7000 0.4081
89.7100 0.0000
89.7200 0.9825
89.7300 0.0000
89.7400 2.0331
89.7500 0.0000
89.7600 0.0000
89.7700 0.0000
89.7800 0.0000
89.7900 1.0286
89.8000 0.0000
89.8100 0.0000
89.8200 0.0000
89.8300 0.0000
89.8400 0.0000
89.8500 1.0852
89.8600 1.8107
89.8700 0.0000
89.8800 0.0000
89.8900 0.0000
89.9000 0.0000
89.9100 0.0000
89.9200 0.0000
89.9300 0.0000
89.9400 1.9562
89.9500 1.0513
89.9600 1.1410
89.9700 0.8861
89.9800 0.3193
89.9900 0.6478
90.0000 0.5168
90.0100 1.0647
90.0200 2.7102
90.0300 1.4313
90.0400 0.2135
90.0500 0.0000
90.0600 0.1631
90.0700 1.7480
90.0800 0.0000
90.0900 0.9751
90.1000 0.0000
90.1100 1.0466
90.1200 0.0000
90.1300 0.7195
90.1400 2.7176
90.1500 1.4223
90.1600 0.0664
90.1700 1.0211
90.1800 0.0000
90.1900 0.0000
90.2000 0.4117
90.2100 1.1196
90.2200 1.0842
90.2300 1.1049
90.2400 0.3233
90.2500 0.0000
90.2600 0.0000
90.2700 0.0637
90.2800 0.8782
90.2900 0.0000
90.3000 0.0000
90.3100 0.0000
90.3200 0.0000
90.3300 0.6008
90.3400 0.3469
90.3500 0.9436
90.3600 1.9732
90.3700 0.0973
90.3800 2.9175
90.3900 0.0000
90.4000 0.9724
90.4100 0.9929
90.4200 2.9883
90.4300 0.6176
90.4400 1.4524
90.4500 0.0000
90.4600 0.0000
90.4700 0.0000
90.4800 0.0000
90.4900 0.0000
90.5000 0.0000
90.5100 0.0000
90.5200 1.9479
90.5300 0.0000
90.5400 0.0000
90.5500 1.1004
90.5600 0.8196
90.5700 2.0458
90.5800 0.0983
90.5900 0.0000
90.6000 0.0000
90.6100 1.0025
90.6200 0.3681
90.6300 0.6230
90.6400 0.9849
90.6500 0.0000
90.6600 0.0000
90.6700 0.0000
90.6800 0.0000
90.6900 0.0000
90.7000 0.9500
90.7100 0.0000
90.7200 0.0000
90.7300 0.0000
90.7400 0.0000
90.7500 1.0248
90.7600 0.0000
90.7700 0.0000
90.7800 1.7959
90.7900 1.0797
90.8000 0.0000
90.8100 0.0000
90.8200 0.2589
90.8300 0.7396
90.8400 0.0000
90.8500 0.0000
90.8600 0.0000
90.8700 0.7442
90.8800 0.2735
90.8900 0.9989
90.9000 0.0000
90.9100 0.1067
90.9200 1.9430
90.9300 0.9999
90.9400 0.0000
90.9500 0.0000
90.9600 0.0000
90.9700 0.0000
90.9800 1.7841
90.9900 0.2218
91.0000 0.0000
91.0100 2.0567
91.0200 0.9131
91.0300 0.2421
91.0400 1.7439
91.0500 0.0000
91.0600 0.0000
91.0700 0.0000
91.0800 0.0000
91.0900 0.0000
91.1000 0.8712
91.1100 1.0745
91.1200 1.0679
91.1300 1.1664
91.1400 2.2763
91.1500 0.1161
91.1600 0.1941
91.1700 0.0000
91.1800 0.0000
91.1900 0.0000
91.2000 1.0917
91.2100 1.0453
91.2200 0.0367
91.2300 1.0095
91.2400 0.0000
91.2500 0.2968
91.2600 1.0423
91.2700 0.5787
91.2800 0.5639
91.2900 0.3737
91.3000 0.7662
91.3100 1.0360
91.3200 0.1086
91.3300 0.9810
91.3400 0.0000
91.3500 0.0000
91.3600 0.0000
91.3700 0.0000
91.3800 0.0000
91.3900 0.0000
91.4000 1.0959
91.4100 0.8537
91.4200 0.1766
91.4300 0.0000
91.4400 0.1130
91.4500 1.8885
91.4600 0.0000
91.4700 0.0000
91.4800 0.0000
91.4900 0.0000
91.5000 0.0000
91.5100 1.0868
91.5200 0.0000
91.5300 1.0600
91.5400 1.0373
91.5500 0.9582
91.5600 0.0000
91.5700 0.0000
91.5800 1.2867
91.5900 1.6831
91.6000 0.6433
91.6100 3.0577
91.6200 0.2735
91.6300 0.0000
91.6400 0.0000
91.6500 0.0000
91.6600 0.0000
91.6700 0.3203
91.6800 0.8123
91.6900 0.0000
91.7000 1.0587
91.7100 0.6209
91.7200 0.3193
91.7300 0.8434
91.7400 0.1498
91.7500 0.9711
91.7600 1.5116
91.7700 3.3116
91.7800 0.3195
91.7900 0.6754
91.8000 0.0000
91.8100 0.0000
91.8200 0.7042
91.8300 0.3036
91.8400 0.0000
91.8500 0.0000
91.8600 0.0000
91.8700 0.0000
91.8800 0.0000
91.8900 0.9677
91.9000 1.0349
91.9100 0.0000
91.9200 4.5711
91.9300 1.3126
91.9400 1.9337
91.9500 0.1845
91.9600 4.0475
91.9700 1.1498
91.9800 0.8834
91.9900 0.3198
92.0000 1.1360
92.0100 0.6082
92.0200 0.6451
92.0300 0.4546
92.0400 1.0189
92.0500 0.0000
92.0600 0.0000
92.0700 0.0757
92.0800 1.2154
92.0900 0.1554
92.1000 0.8003
92.1100 0.6307
92.1200 1.4852
92.1300 0.4915
92.1400 1.9226
92.1500 0.7794
92.1600 3.1852
92.1700 0.9866
92.1800 0.0000
92.1900 0.0000
92.2000 0.3019
92.2100 0.7547
92.2200 0.0000
92.2300 0.0000
92.2400 0.0000
92.2500 0.0000
92.2600 0.0000
92.2700 0.9967
92.2800 0.9969
92.2900 0.2644
92.3000 1.6902
92.3100 0.0000
92.3200 0.0000
92.3300 1.5364
92.3400 1.4688
92.3500 0.2363
92.3600 0.1005
92.3700 0.5997
92.3800 2.0490
92.3900 1.0220
92.4000 0.1740
92.4100 0.8280
92.4200 0.0000
92.4300 1.1401
92.4400 1.0074
92.4500 1.6852
92.4600 0.3749
92.4700 0.0000
92.4800 0.9394
92.4900 0.0720
92.5000 0.0000
92.5100 0.4105
92.5200 2.5282
92.5300 0.0000
92.5400 1.9736
92.5500 0.6389
92.5600 0.4449
92.5700 0.7649
92.5800 1.2391
92.5900 0.0000
92.6000 0.0000
92.6100 0.0000
92.6200 0.0000
92.6300 0.0000
92.6400 0.9393
92.6500 0.5215
92.6600 3.3620
92.6700 2.4938
92.6800 0.5662
92.6900 0.0000
92.7000 0.9862
92.7100 0.9503
92.7200 0.0000
92.7300 0.0000
92.7400 0.9696
92.7500 0.0000
92.7600 0.5993
92.7700 0.4488
92.7800 0.9887
92.7900 0.0000
92.8000 1.0404
92.8100 0.9496
92.8200 0.0000
92.8300 0.9741
92.8400 0.0000
92.8500 0.0000
92.8600 0.0000
92.8700 0.0000
92.8800 0.0000
92.8900 0.0000
92.9000 0.0000
92.9100 0.0000
92.9200 0.9957
92.9300 0.0000
92.9400 0.0000
92.9500 0.0000
92.9600 0.0000
92.9700 1.0986
92.9800 1.5722
92.9900 0.3730
93.0000 0.8016
93.0100 0.1558
93.0200 0.0257
93.0300 0.9617
93.0400 0.0000
93.0500 0.0000
93.0600 0.3918
93.0700 0.5788
93.0800 0.0000
93.0900 0.9856
93.1000 0.0000
93.1100 0.8716
93.1200 2.0336
93.1300 0.0285
93.1400 0.1540
93.1500 0.8158
93.1600 0.0000
93.1700 0.4352
93.1800 1.0671
93.1900 2.1310
93.2000 1.1512
93.2100 1.1114
93.2200 0.1817
93.2300 0.0000
93.2400 0.0000
93.2500 0.0000
93.2600 0.5786
93.2700 1.4062
93.2800 0.9836
93.2900 0.9856
93.3000 0.0000
93.3100 0.0000
93.3200 1.8299
93.3300 2.1281
93.3400 0.1422
93.3500 2.8670
93.3600 0.0000
93.3700 0.3256
93.3800 0.6615
93.3900 0.0000
93.4000 0.0000
93.4100 0.7288
93.4200 1.2512
93.4300 0.0000
93.4400 0.0000
93.4500 0.9451
93.4600 0.0000
93.4700 0.2792
93.4800 0.7404
93.4900 0.0000
93.5000 0.0000
93.5100 1.0282
93.5200 1.0224
93.5300 0.0000
93.5400 0.9012
93.5500 1.0543
93.5600 0.0000
93.5700 0.4303
93.5800 1.8440
93.5900 0.6568
93.6000 0.9876
93.6100 0.0000
93.6200 0.0000
93.6300 0.0000
93.6400 0.0000
93.6500 0.0000
93.6600 0.0000
93.6700 1.1407
93.6800 0.9154
93.6900 0.9551
93.7000 0.4266
93.7100 1.5601
93.7200 0.0000
93.7300 0.0000
93.7400 0.0000
93.7500 1.9653
93.7600 3.9176
93.7700 0.2067
93.7800 1.9541
93.7900 0.8160
93.8000 0.0000
93.8100 0.4817
93.8200 1.0801
93.8300 1.4165
93.8400 0.0000
93.8500 0.0000
93.8600 0.0000
93.8700 0.0000
93.8800 1.2639
93.8900 1.7969
93.9000 0.3773
93.9100 0.7566
93.9200 0.0000
93.9300 0.0000
93.9400 0.0000
93.9500 1.5709
93.9600 1.2607
93.9700 2.1132
93.9800 0.0064
93.9900 0.0000
94.0000 0.0000
94.0100 0.0000
94.0200 0.4636
94.0300 0.5323
94.0400 2.5669
94.0500 0.3328
94.0600 0.0000
94.0700 0.0000
94.0800 0.9931
94.0900 0.9233
94.1000 0.4236
94.1100 2.4671
94.1200 0.0000
94.1300 0.0000
94.1400 0.0000
94.1500 0.9693
94.1600 0.0000
94.1700 0.9035
94.1800 0.1216
94.1900 0.0000
94.2000 0.9712
94.2100 0.0000
94.2200 0.0000
94.2300 0.0000
94.2400 0.0000
94.2500 0.0000
94.2600 0.0000
94.2700 0.9690
94.2800 0.9389
94.2900 1.0274
94.3000 0.0000
94.3100 0.0000
94.3200 0.9729
94.3300 0.0000
94.3400 0.0000
94.3500 0.9974
94.3600 0.6652
94.3700 0.3204
94.3800 0.0000
94.3900 0.0000
94.4000 0.0000
94.4100 0.0000
94.4200 0.2350
94.4300 0.7391
94.4400 0.0000
94.4500 0.0000
94.4600 0.0000
94.4700 1.9549
94.4800 1.0752
94.4900 0.0000
94.5000 0.0000
94.5100 1.1790
94.5200 1.7910
94.5300 0.2716
94.5400 1.0777
94.5500 0.6327
94.5600 0.0000
94.5700 0.0000
94.5800 0.0000
94.5900 1.0412
94.6000 0.0000
94.6100 0.0341
94.6200 1.0782
94.6300 0.8856
94.6400 0.0000
94.6500 0.0000
94.6600 0.4950
94.6700 2.8035
94.6800 0.9294
94.6900 0.0443
94.7000 0.9010
94.7100 0.1179
94.7200 1.9894
94.7300 0.9452
94.7400 1.0443
94.7500 0.0000
94.7600 0.0000
94.7700 1.5855
94.7800 0.4873
94.7900 1.6917
94.8000 1.3159
94.8100 0.9302
94.8200 0.0780
94.8300 0.0000
94.8400 0.2092
94.8500 0.8070
94.8600 0.0000
94.8700 0.4874
94.8800 2.7162
94.8900 1.5086
94.9000 0.3143
94.9100 0.0000
94.9200 0.0000
94.9300 0.9308
94.9400 0.0000
94.9500 0.0000
94.9600 0.0000
94.9700 0.0000
94.9800 0.0000
94.9900 0.0000
95.0000 0.0000
95.0100 0.9559
95.0200 2.8296
95.0300 2.1979
95.0400 0.9858
95.0500 3.0286
95.0600 0.0000
95.0700 0.0000
95.0800 0.0000
95.0900 0.0000
95.1000 0.0000
95.1100 0.0000
95.1200 0.0000
95.1300 0.0000
95.1400 1.0303
95.1500 2.4957
95.1600 1.7263
95.1700 2.0323
95.1800 0.6992
95.1900 0.9700
95.2000 1.0000
95.2100 0.0000
95.2200 0.0000
95.2300 0.9884
95.2400 0.0000
95.2500 2.1341
95.2600 0.9279
95.2700 0.2620
95.2800 0.7274
95.2900 0.0000
95.3000 0.0000
95.3100 0.0000
95.3200 0.0000
95.3300 0.8325
95.3400 1.1385
95.3500 0.0203
95.3600 1.1076
95.3700 0.8546
95.3800 1.0072
95.3900 0.9795
95.4000 0.4788
95.4100 1.4736
95.4200 0.0000
95.4300 0.0000
95.4400 0.0000
95.4500 1.0461
95.4600 0.1186
95.4700 1.9157
95.4800 0.0000
95.4900 0.3404
95.5000 1.6006
95.5100 0.5199
95.5200 1.0771
95.5300 0.3705
95.5400 0.8651
95.5500 0.1984
95.5600 0.9474
95.5700 0.0000
95.5800 3.9975
95.5900 0.0000
95.6000 1.0591
95.6100 0.0000
95.6200 2.0663
95.6300 0.0000
95.6400 2.7850
95.6500 1.2247
95.6600 6.0922
95.6700 0.0827
95.6800 1.9565
95.6900 0.9190
95.7000 4.4076
95.7100 1.1033
95.7200 0.6130
95.7300 1.8348
95.7400 2.1744
95.7500 0.7735
95.7600 0.1986
95.7700 0.9805
95.7800 1.0228
95.7900 0.0000
95.8000 0.0000
95.8100 0.0000
95.8200 1.4385
95.8300 0.5484
95.8400 0.0000
95.8500 1.0312
95.8600 0.0000
95.8700 0.0000
95.8800 2.0273
95.8900 0.0000
95.9000 0.0000
95.9100 0.0000
95.9200 1.4420
95.9300 1.1309
95.9400 0.4917
95.9500 0.0000
95.9600 0.0000
95.9700 0.0000
95.9800 0.0000
95.9900 0.9742
96.0000 0.0000
96.0100 0.0000
96.0200 0.3392
96.0300 0.6458
96.0400 0.5304
96.0500 0.4644
96.0600 0.0000
96.0700 0.8335
96.0800 2.1553
96.0900 0.0964
96.1000 0.0000
96.1100 0.9790
96.1200 0.5976
96.1300 1.4751
96.1400 0.4672
96.1500 0.5120
96.1600 0.0000
96.1700 1.0547
96.1800 0.0000
96.1900 0.9585
96.2000 0.0953
96.2100 1.1016
96.2200 0.8574
96.2300 0.6560
96.2400 1.7591
96.2500 0.5594
96.2600 1.6491
96.2700 0.3786
96.2800 0.0000
96.2900 1.8540
96.3000 2.0717
96.3100 0.0124
96.3200 0.0000
96.3300 1.0388
96.3400 0.0000
96.3500 0.4716
96.3600 0.5550
96.3700 0.0000
96.3800 0.9329
96.3900 0.0000
96.4000 0.0000
96.4100 0.0000
96.4200 1.0935
96.4300 0.8725
96.4400 0.0000
96.4500 0.9593
96.4600 0.0000
96.4700 1.0055
96.4800 0.0000
96.4900 0.8022
96.5000 1.0964
96.5100 1.0480
96.5200 0.0289
96.5300 2.0924
96.5400 1.2500
96.5500 2.6918
96.5600 0.0000
96.5700 0.5329
96.5800 0.4612
96.5900 0.0000
96.6000 0.0000
96.6100 0.0000
96.6200 1.0247
96.6300 0.1039
96.6400 0.9104
96.6500 0.0000
96.6600 0.0000
96.6700 0.0000
96.6800 0.0000
96.6900 0.0000
96.7000 0.7569
96.7100 0.2349
96.7200 0.0000
96.7300 2.0411
96.7400 0.0000
96.7500 0.3073
96.7600 0.9997
96.7700 0.1388
96.7800 0.1886
96.7900 2.0961
96.8000 1.3946
96.8100 2.9634
96.8200 0.4078
96.8300 1.9245
96.8400 0.9829
96.8500 2.1124
96.8600 1.1827
96.8700 0.7446
96.8800 0.0000
96.8900 1.0183
96.9000 1.3741
96.9100 0.7364
96.9200 0.0000
96.9300 0.0000
96.9400 1.9667
96.9500 0.1182
96.9600 1.8230
96.9700 0.0000
96.9800 0.0000
96.9900 0.4850
97.0000 1.4886
97.0100 0.0000
97.0200 0.0000
97.0300 0.0000
97.0400 0.0000
97.0500 0.0000
97.0600 0.0000
97.0700 0.0000
97.0800 0.3480
97.0900 1.7151
97.1000 0.0000
97.1100 0.0000
97.1200 0.0000
97.1300 0.0000
97.1400 0.9288
97.1500 0.0846
97.1600 0.0000
97.1700 1.9728
97.1800 0.0000
97.1900 2.0224
97.2000 0.0000
97.2100 0.0000
97.2200 0.0000
97.2300 0.0000
97.2400 1.0182
97.2500 0.0000
97.2600 0.0000
97.2700 0.9860
97.2800 0.0000
97.2900 0.0000
97.3000 0.0000
97.3100 0.5164
97.3200 0.4743
97.3300 0.0000
97.3400 0.0000
97.3500 1.9212
97.3600 0.1014
97.3700 0.9932
97.3800 0.0000
97.3900 0.0000
97.4000 0.9934
97.4100 0.0000
97.4200 1.0264
97.4300 0.1711
97.4400 0.0000
97.4500 2.0540
97.4600 1.1275
97.4700 1.1031
97.4800 0.9918
97.4900 0.0000
97.5000 0.2928
97.5100 1.9691
97.5200 0.5586
97.5300 0.5950
97.5400 0.4001
97.5500 0.9974
97.5600 0.0000
97.5700 0.0000
97.5800 0.0000
97.5900 1.0594
97.6000 0.0000
97.6100 0.0000
97.6200 0.0000
97.6300 0.0000
97.6400 1.9444
97.6500 1.1116
97.6600 0.8705
97.6700 1.1208
97.6800 0.0820
97.6900 0.1056
97.7000 1.8787
97.7100 0.0000
97.7200 0.3914
97.7300 0.6086
97.7400 0.9873
97.7500 0.9740
97.7600 0.7667
97.7700 0.2303
97.7800 0.0000
97.7900 0.0589
97.8000 1.0705
97.8100 0.0000
97.8200 0.0000
97.8300 0.0000
97.8400 0.0000
97.8500 0.0000
97.8600 0.0000
97.8700 0.7696
97.8800 0.1837
97.8900 0.0000
97.9000 0.0000
97.9100 0.0000
97.9200 0.0000
97.9300 0.0000
97.9400 2.3684
97.9500 2.0989
97.9600 0.4452
97.9700 0.7684
97.9800 0.2544
97.9900 1.0229
98.0000 1.0040
98.0100 1.9352
98.0200 0.0000
98.0300 0.0000
98.0400 0.0000
98.0500 1.0089
98.0600 1.0005
98.0700 0.0000
98.0800 0.0000
98.0900 0.0000
98.1000 1.9483
98.1100 1.0541
98.1200 0.0000
98.1300 0.0000
98.1400 0.9667
98.1500 0.0000
98.1600 0.0000
98.1700 0.0000
98.1800 0.0000
98.1900 0.0000
98.2000 0.0000
98.2100 1.0872
98.2200 0.1094
98.2300 0.8753
98.2400 0.9970
98.2500 0.9930
98.2600 0.4838
98.2700 0.5062
98.2800 1.7277
98.2900 1.2760
98.3000 0.0000
98.3100 0.0000
98.3200 0.9573
98.3300 0.1454
98.3400 0.8276
98.3500 0.0000
98.3600 0.0000
98.3700 1.0480
98.3800 0.9404
98.3900 1.9914
98.4000 1.7743
98.4100 0.1904
98.4200 0.9580
98.4300 0.0000
98.4400 0.3637
98.4500 1.5729
98.4600 1.4247
98.4700 1.6300
98.4800 0.0000
98.4900 1.0427
98.5000 1.5150
98.5100 2.1711
98.5200 4.1703
98.5300 1.0425
98.5400 0.9729
98.5500 1.0157
98.5600 2.2856
98.5700 0.7165
98.5800 0.0000
98.5900 0.5941
98.6000 0.3900
98.6100 0.0000
98.6200 0.0000
98.6300 1.0022
98.6400 0.9891
98.6500 0.1708
98.6600 1.0839
98.6700 1.6686
98.6800 0.0000
98.6900 0.0000
98.7000 1.0129
98.7100 1.8105
98.7200 2.2210
98.7300 2.7716
98.7400 1.1761
98.7500 0.9996
98.7600 0.2236
98.7700 1.1653
98.7800 2.1475
98.7900 1.6062
98.8000 3.0367
98.8100 0.0000
98.8200 0.0000
98.8300 0.0000
98.8400 1.0387
98.8500 0.0000
98.8600 1.0754
98.8700 1.1998
98.8800 1.1009
98.8900 1.0792
98.9000 2.1828
98.9100 2.0444
98.9200 1.3996
98.9300 0.0000
98.9400 0.0000
98.9500 0.0039
98.9600 2.0416
98.9700 0.9750
98.9800 0.2857
98.9900 1.7499
99.0000 1.0030
99.0100 1.1135
99.0200 0.0000
99.0300 0.0000
99.0400 0.0000
99.0500 1.9493
99.0600 1.0454
99.0700 0.1303
99.0800 2.0150
99.0900 1.1188
99.1000 2.0959
99.1100 2.0421
99.1200 2.6630
99.1300 0.7820
99.1400 0.7996
99.1500 0.2057
99.1600 0.0000
99.1700 0.0000
99.1800 0.0000
99.1900 0.0000
99.2000 0.0000
99.2100 0.0000
99.2200 0.0000
99.2300 0.0000
99.2400 0.0000
99.2500 0.0000
99.2600 0.0000
99.2700 0.9539
99.2800 0.0000
99.2900 0.1969
99.3000 0.7350
99.3100 0.7802
99.3200 1.1698
99.3300 0.9951
99.3400 0.0000
99.3500 0.7825
99.3600 2.0340
99.3700 0.2656
99.3800 0.0000
99.3900 0.0000
99.4000 0.9929
99.4100 1.0613
99.4200 0.0000
99.4300 0.0000
99.4400 0.0000
99.4500 0.0000
99.4600 0.9897
99.4700 1.0289
99.4800 0.0000
99.4900 0.0000
99.5000 0.9786
99.5100 0.0000
99.5200 0.3760
99.5300 0.6073
99.5400 0.0000
99.5500 0.0000
99.5600 0.0000
99.5700 0.8328
99.5800 1.1198
99.5900 1.0453
99.6000 1.8339
99.6100 1.9822
99.6200 0.9981
99.6300 0.0000
99.6400 2.0376
99.6500 0.0000
99.6600 1.3774
99.6700 0.5794
99.6800 0.9834
99.6900 0.0000
99.7000 2.0580
99.7100 0.8742
99.7200 0.0000
99.7300 0.9814
99.7400 1.0495
99.7500 0.9634
99.7600 2.9776
99.7700 0.7061
99.7800 2.2806
99.7900 0.9770
99.8000 1.0245
99.8100 1.0804
99.8200 0.8473
99.8300 1.2899
99.8400 0.6902
99.8500 1.0082
99.8600 0.0000
99.8700 0.0000
99.8800 2.0115
99.8900 0.0000
99.9000 1.0396
99.9100 0.9752
99.9200 0.0000
99.9300 0.0000
99.9400 0.0000
99.9500 0.4296
99.9600 0.5438
99.9700 0.9454
99.9800 1.7323
99.9900 0.2769
100.0000 0.0000
100.0100 0.0000
100.0200 0.0000
100.0300 0.0000
100.0400 0.0000
100.0500 0.0000
100.0600 0.0000
100.0700 0.0000
100.0800 0.6497
100.0900 0.3222
100.1000 1.0071
100.1100 0.0000
100.1200 0.0512
100.1300 1.0616
100.1400 0.0000
100.1500 0.9890
100.1600 0.0000
100.1700 0.0000
100.1800 0.0000
100.1900 0.0000
100.2000 0.0000
100.2100 1.0866
100.2200 0.0000
100.2300 2.0176
100.2400 0.0000
100.2500 0.0000
100.2600 0.0000
100.2700 0.4721
100.2800 0.5499
100.2900 1.0070
100.3000 0.0000
100.3100 0.0000
100.3200 2.0231
100.3300 0.0273
100.3400 0.9377
100.3500 0.0000
100.3600 0.0000
100.3700 0.0000
100.3800 0.0000
100.3900 1.7901
100.4000 1.9766
100.4100 0.3413
100.4200 0.0000
100.4300 1.9901
100.4400 1.0569
100.4500 0.0000
100.4600 0.2584
100.4700 0.7531
100.4800 0.0000
100.4900 0.0000
100.5000 0.0000
100.5100 1.6577
100.5200 2.7264
100.5300 0.5345
100.5400 2.0052
100.5500 0.0000
100.5600 0.9880
100.5700 1.1145
100.5800 0.1630
100.5900 0.4591
100.6000 2.2425
100.6100 1.1028
100.6200 1.0996
100.6300 0.2407
100.6400 0.0000
100.6500 0.0000
100.6600 0.0000
100.6700 0.0000
100.6800 0.0000
100.6900 1.0258
100.7000 1.1194
100.7100 0.0000
100.7200 0.9441
100.7300 0.0000
100.7400 0.0000
100.7500 0.0000
100.7600 0.0855
100.7700 1.9126
100.7800 0.0000
100.7900 0.0000
100.8000 0.0000
100.8100 1.0261
100.8200 0.6525
100.8300 0.3457
100.8400 0.8780
100.8500 0.1642
100.8600 0.0000
100.8700 0.0000
100.8800 2.2326
100.8900 1.9113
100.9000 2.0305
100.9100 0.0000
100.9200 0.9536
100.9300 0.0000
100.9400 0.0000
100.9500 0.0000
100.9600 0.9535
100.9700 1.0305
100.9800 0.0000
100.9900 0.0000
101.0000 0.9987
101.0100 0.4446
101.0200 0.5497
101.0300 0.6161
101.0400 0.3527
101.0500 0.0000
101.0600 0.0000
101.0700 0.0000
101.0800 1.1992
101.0900 0.9426
101.1000 0.0000
101.1100 0.0000
101.1200 0.9376
101.1300 0.0000
101.1400 0.6978
101.1500 0.3371
101.1600 0.0000
101.1700 0.0000
101.1800 2.0286
101.1900 0.0000
101.2000 0.9853
101.2100 0.3451
101.2200 2.1031
101.2300 0.5510
101.2400 0.0000
101.2500 0.0000
101.2600 1.5669
101.2700 0.3747
101.2800 0.0000
101.2900 0.0000
101.3000 0.0000
101.3100 0.0000
101.3200 0.0000
101.3300 0.9634
101.3400 0.5582
101.3500 1.4577
101.3600 1.0061
101.3700 0.0000
101.3800 0.0000
101.3900 0.0000
101.4000 0.0000
101.4100 0.0000
101.4200 1.0286
101.4300 0.0959
101.4400 0.4974
101.4500 0.4854
101.4600 0.0000
101.4700 0.0000
101.4800 0.0000
101.4900 0.0000
101.5000 0.0000
101.5100 0.0000
101.5200 0.9869
101.5300 0.0000
101.5400 0.0000
101.5500 0.5467
101.5600 1.4705
101.5700 1.0076
101.5800 0.0000
101.5900 0.0000
101.6000 0.0000
101.6100 2.2027
101.6200 0.9396
101.6300 0.0000
101.6400 0.0000
101.6500 1.6462
101.6600 1.1248
101.6700 1.4417
101.6800 0.0000
101.6900 0.0000
101.7000 0.0000
101.7100 0.0000
101.7200 1.0298
101.7300 0.9285
101.7400 0.0000
101.7500 0.9739
101.7600 0.0000
101.7700 0.9665
101.7800 0.0000
101.7900 1.7954
101.8000 0.1892
101.8100 0.0000
101.8200 0.0000
101.8300 0.0000
101.8400 1.0545
101.8500 0.0000
101.8600 0.0000
101.8700 1.1104
101.8800 0.0000
101.8900 0.4902
101.9000 0.1601
101.9100 1.2840
101.9200 0.9790
101.9300 0.0000
101.9400 1.9439
101.9500 0.3174
101.9600 1.5730
101.9700 0.9728
101.9800 0.0000
101.9900 0.0000
102.0000 0.7892
102.0100 1.1970
102.0200 2.8931
102.0300 1.0703
102.0400 2.0843
102.0500 0.9837
102.0600 0.9897
102.0700 0.4551
102.0800 2.0996
102.0900 1.4417
102.1000 3.0409
102.1100 0.0000
102.1200 1.0120
102.1300 0.0000
102.1400 0.1244
102.1500 0.9695
102.1600 0.9948
102.1700 0.0000
102.1800 1.4430
102.1900 0.5117
102.2000 0.0000
102.2100 0.0000
102.2200 0.0000
102.2300 0.0000
102.2400 0.0000
102.2500 0.0000
102.2600 0.0000
102.2700 0.0000
102.2800 0.0000
102.2900 0.5246
102.3000 0.4659
102.3100 1.4964
102.3200 1.5488
102.3300 0.8853
102.3400 0.0921
102.3500 1.9514
102.3600 1.0109
102.3700 0.0000
102.3800 0.0000
102.3900 0.0000
102.4000 0.0000
102.4100 1.0255
102.4200 0.0000
102.4300 0.0000
102.4400 0.0000
102.4500 0.0000
102.4600 0.0000
102.4700 0.2292
102.4800 2.7341
102.4900 0.0000
102.5000 0.0000
102.5100 0.6673
102.5200 0.4333
102.5300 0.0000
102.5400 0.0000
102.5500 0.9910
102.5600 0.0162
102.5700 1.3055
102.5800 1.8797
102.5900 0.6985
102.6000 0.0000
102.6100 0.9324
102.6200 0.9837
102.6300 0.0000
102.6400 1.9742
102.6500 1.0234
102.6600 0.0000
102.6700 0.0000
102.6800 0.0000
102.6900 0.0000
102.7000 0.0000
102.7100 0.0000
102.7200 1.5872
102.7300 0.4107
102.7400 0.0000
102.7500 0.0000
102.7600 2.9025
102.7700 0.9940
102.7800 0.9476
102.7900 0.9470
102.8000 0.0000
102.8100 0.4560
102.8200 2.1893
102.8300 0.5194
102.8400 1.0154
102.8500 0.0000
102.8600 0.9853
102.8700 1.1123
102.8800 1.0016
102.8900 1.0525
102.9000 0.0000
102.9100 0.3718
102.9200 0.6013
102.9300 0.0000
102.9400 0.0000
102.9500 0.0000
102.9600 0.0000
102.9700 0.0000
102.9800 1.0669
102.9900 1.0867
103.0000 0.8797
103.0100 0.0000
103.0200 0.9801
103.0300 0.5083
103.0400 2.5014
103.0500 0.6821
103.0600 0.2874
103.0700 0.9452
103.0800 0.0000
103.0900 0.0000
103.1000 0.0000
103.1100 0.0000
103.1200 0.0000
103.1300 1.0292
103.1400 1.0310
103.1500 0.0000
103.1600 0.9591
103.1700 0.0000
103.1800 0.0000
103.1900 0.9524
103.2000 0.1264
103.2100 2.3764
103.2200 1.9154
103.2300 0.6853
103.2400 0.0000
103.2500 0.9766
103.2600 0.0000
103.2700 0.0000
103.2800 0.8956
103.2900 0.1283
103.3000 0.0000
103.3100 0.9866
103.3200 0.0000
103.3300 0.0000
103.3400 0.0000
103.3500 0.0000
103.3600 0.0000
103.3700 0.7385
103.3800 0.2812
103.3900 0.9368
103.4000 0.0000
103.4100 0.9816
103.4200 1.2339
103.4300 0.8245
103.4400 1.4742
103.4500 0.6437
103.4600 1.5690
103.4700 0.4135
103.4800 0.0000
103.4900 0.0000
103.5000 0.0000
103.5100 0.0465
103.5200 0.9702
103.5300 0.0000
103.5400 0.0000
103.5500 0.0000
103.5600 0.4841
103.5700 0.4510
103.5800 0.9912
103.5900 0.8234
103.6000 1.2400
103.6100 0.9935
103.6200 0.9642
103.6300 0.0000
103.6400 1.3166
103.6500 2.9875
103.6600 0.5853
103.6700 0.0000
103.6800 1.0069
103.6900 0.0000
103.7000 0.0000
103.7100 0.0000
103.7200 0.0274
103.7300 0.9492
103.7400 0.0352
103.7500 0.1271
103.7600 1.5315
103.7700 0.6750
103.7800 0.0827
103.7900 0.0564
103.8000 0.0000
103.8100 0.0000
103.8200 0.9930
103.8300 0.1306
103.8400 1.8370
103.8500 0.5243
103.8600 1.5306
103.8700 0.9581
103.8800 0.6018
103.8900 0.5161
103.9000 0.0000
103.9100 0.0000
103.9200 1.9889
103.9300 0.0860
103.9400 0.0000
103.9500 0.0000
103.9600 0.0000
103.9700 1.0334
103.9800 0.9758
103.9900 0.0000
104.0000 0.0000
104.0100 1.7370
104.0200 0.2310
104.0300 0.0000
104.0400 0.0487
104.0500 1.9389
104.0600 1.2182
104.0700 0.7373
104.0800 0.9763
104.0900 0.5109
104.1000 2.5071
104.1100 0.0000
104.1200 0.9913
104.1300 1.0569
104.1400 0.0000
104.1500 1.0209
104.1600 0.0000
104.1700 0.0000
104.1800 0.9347
104.1900 0.0000
104.2000 0.0000
104.2100 0.0000
104.2200 0.9513
104.2300 0.0000
104.2400 0.9783
104.2500 0.0000
104.2600 0.9744
104.2700 0.0000
104.2800 0.0000
104.2900 0.9583
104.3000 1.0027
104.3100 0.0000
104.3200 0.0000
104.3300 0.9871
104.3400 0.0000
104.3500 0.0000
104.3600 1.9347
104.3700 0.0000
104.3800 0.2602
104.3900 0.7481
104.4000 0.9421
104.4100 1.1663
104.4200 0.0000
104.4300 0.0000
104.4400 0.0000
104.4500 0.8711
104.4600 0.0770
104.4700 1.0209
104.4800 1.0742
104.4900 1.9451
104.5000 0.0000
104.5100 0.0000
104.5200 0.9288
104.5300 0.6977
104.5400 1.3370
104.5500 0.0000
104.5600 2.0353
104.5700 0.0456
104.5800 0.9699
104.5900 0.0000
104.6000 0.0000
104.6100 0.0000
104.6200 1.6321
104.6300 0.5169
104.6400 0.9871
104.6500 0.0000
104.6600 0.0000
104.6700 0.0000
104.6800 0.0000
104.6900 0.0000
104.7000 0.6247
104.7100 0.0000
104.7200 1.3031
104.7300 0.0000
104.7400 0.0000
104.7500 0.7911
104.7600 0.2628
104.7700 0.0000
104.7800 0.0341
104.7900 1.9445
104.8000 0.0000
104.8100 0.3163
104.8200 0.6814
104.8300 0.0000
104.8400 0.9472
104.8500 0.0000
104.8600 0.0000
104.8700 0.8958
104.8800 0.1183
104.8900 1.1002
104.9000 1.1450
104.9100 2.1727
104.9200 0.7112
104.9300 1.0026
104.9400 0.0000
104.9500 0.0000
104.9600 1.4794
104.9700 0.5391
104.9800 0.0000
104.9900 0.0000
105.0000 0.0000
105.0100 0.0000
105.0200 0.2968
105.0300 0.6948
105.0400 0.4787
105.0500 0.5021
105.0600 0.0000
105.0700 0.0000
105.0800 0.8941
105.0900 1.1260
105.1000 0.9256
105.1100 0.0000
105.1200 0.0000
105.1300 0.0000
105.1400 0.0000
105.1500 0.0000
105.1600 0.0000
105.1700 0.0000
105.1800 0.8234
105.1900 1.2527
105.2000 0.9692
105.2100 0.0980
105.2200 0.9425
105.2300 0.2708
105.2400 1.6649
105.2500 0.4933
105.2600 0.5555
105.2700 0.0000
105.2800 0.0000
105.2900 0.8569
105.3000 0.1537
105.3100 1.0103
105.3200 0.0000
105.3300 0.0000
105.3400 0.0000
105.3500 0.0000
105.3600 0.0000
105.3700 0.9740
105.3800 0.0000
105.3900 0.9899
105.4000 0.0000
105.4100 0.0000
105.4200 0.0705
105.4300 0.8687
105.4400 0.2678
105.4500 0.7472
105.4600 0.4254
105.4700 0.5144
105.4800 0.0000
105.4900 1.5216
105.5000 1.6091
105.5100 0.0000
105.5200 1.0036
105.5300 0.0000
105.5400 0.0000
105.5500 0.2929
105.5600 1.0737
105.5700 1.5772
105.5800 0.0000
105.5900 0.6866
105.6000 0.3234
105.6100 1.9880
105.6200 0.0000
105.6300 1.0601
105.6400 0.0000
105.6500 0.9923
105.6600 1.2731
105.6700 1.0903
105.6800 0.5583
105.6900 0.0000
105.7000 0.0000
105.7100 1.7562
105.7200 1.2307
105.7300 0.0013
105.7400 0.9855
105.7500 0.0000
105.7600 0.0000
105.7700 0.0000
105.7800 0.0000
105.7900 0.0000
105.8000 1.6409
105.8100 0.3329
105.8200 0.0000
105.8300 1.0695
105.8400 1.0048
105.8500 0.0000
105.8600 0.0000
105.8700 0.0000
105.8800 0.3289
105.8900 0.0000
105.9000 0.6578
105.9100 0.9751
105.9200 0.7740
105.9300 0.1999
105.9400 1.0787
105.9500 0.0000
105.9600 0.1794
105.9700 0.8615
105.9800 0.0000
105.9900 0.0000
106.0000 0.0000
106.0100 0.0000
106.0200 1.0041
106.0300 0.9736
106.0400 0.0000
106.0500 0.9719
106.0600 1.0136
106.0700 0.0000
106.0800 0.0000
106.0900 0.0000
106.1000 2.0183
106.1100 4.0522
106.1200 0.0000
106.1300 0.0000
106.1400 1.7211
106.1500 1.2186
106.1600 0.9717
106.1700 0.0000
106.1800 3.0030
106.1900 0.0000
106.2000 0.0000
106.2100 0.9917
106.2200 0.6051
106.2300 1.3315
106.2400 1.0132
106.2500 0.0000
106.2600 0.9666
106.2700 1.9918
106.2800 0.0000
106.2900 0.0000
106.3000 0.0000
106.3100 0.0000
106.3200 0.0000
106.3300 1.6639
106.3400 1.4995
106.3500 0.8166
106.3600 0.1399
106.3700 0.0000
106.3800 1.0622
106.3900 1.0748
106.4000 0.7288
106.4100 0.0000
106.4200 0.0000
106.4300 0.0000
106.4400 0.0000
106.4500 0.0000
106.4600 0.0000
106.4700 0.0000
106.4800 0.0000
106.4900 0.0000
106.5000 0.0000
106.5100 0.0000
106.5200 0.0000
106.5300 0.5180
106.5400 0.4190
106.5500 0.0000
106.5600 0.9831
106.5700 0.0000
106.5800 1.0244
106.5900 0.1264
106.6000 0.9341
106.6100 0.3168
106.6200 0.7118
106.6300 0.9741
106.6400 0.0000
106.6500 0.7180
106.6600 0.3293
106.6700 0.0000
106.6800 1.0355
106.6900 0.0000
106.7000 0.0000
106.7100 0.9793
106.7200 0.0000
106.7300 0.0000
106.7400 0.5426
106.7500 0.4714
106.7600 0.7408
106.7700 1.0496
106.7800 0.1703
106.7900 0.0068
106.8000 1.0597
106.8100 0.9013
106.8200 0.0000
106.8300 0.0000
106.8400 1.9449
106.8500 1.9949
106.8600 0.6585
106.8700 1.1288
106.8800 1.0589
106.8900 2.0531
106.9000 0.9777
106.9100 0.0000
106.9200 0.4648
106.9300 1.5198
106.9400 0.4301
106.9500 0.5867
106.9600 0.0000
106.9700 0.0000
106.9800 0.0000
106.9900 0.0000
107.0000 0.0000
107.0100 1.0071
107.0200 0.0000
107.0300 0.0000
107.0400 0.0000
107.0500 0.0000
107.0600 0.0000
107.0700 0.0000
107.0800 0.7173
107.0900 1.2473
107.1000 0.9739
107.1100 0.0988
107.1200 2.0581
107.1300 2.0137
107.1400 0.0000
107.1500 0.0000
107.1600 0.0000
107.1700 1.2407
107.1800 0.8478
107.1900 0.0000
107.2000 1.0542
107.2100 1.9477
107.2200 2.0451
107.2300 1.1720
107.2400 0.8998
107.2500 0.0000
107.2600 0.9751
107.2700 0.0000
107.2800 0.0000
107.2900 0.0000
107.3000 0.9100
107.3100 0.0000
107.3200 0.0000
107.3300 0.1072
107.3400 2.0697
107.3500 0.7634
107.3600 0.4176
107.3700 2.1289
107.3800 0.5175
107.3900 0.0000
107.4000 0.0000
107.4100 0.8241
107.4200 2.0505
107.4300 0.0458
107.4400 0.0000
107.4500 0.9851
107.4600 0.0000
107.4700 2.3983
107.4800 1.5656
107.4900 1.2344
107.5000 0.7738
107.5100 0.0000
107.5200 0.2742
107.5300 1.9621
107.5400 2.5367
107.5500 0.1798
107.5600 0.8131
107.5700 0.9778
107.5800 0.0000
107.5900 0.0000
107.6000 0.0000
107.6100 0.7455
107.6200 0.2519
107.6300 0.0000
107.6400 1.0637
107.6500 0.0000
107.6600 0.0000
107.6700 0.9387
107.6800 0.0000
107.6900 0.9635
107.7000 1.6378
107.7100 0.4453
107.7200 0.0000
107.7300 0.0000
107.7400 0.0000
107.7500 0.9985
107.7600 0.0000
107.7700 0.0000
107.7800 0.3549
107.7900 0.6530
107.8000 0.5413
107.8100 0.4594
107.8200 0.0000
107.8300 1.9245
107.8400 0.1993
107.8500 1.0602
107.8600 0.1072
107.8700 1.1018
107.8800 0.8308
107.8900 0.0000
107.9000 0.0000
107.9100 0.0000
107.9200 0.9815
107.9300 0.0000
107.9400 0.0000
107.9500 0.0000
107.9600 0.0000
107.9700 0.0000
107.9800 1.1686
107.9900 3.3705
108.0000 0.0000
108.0100 1.0620
108.0200 0.9678
108.0300 0.0000
108.0400 0.0000
108.0500 0.0000
108.0600 1.0412
108.0700 1.0683
108.0800 2.0571
108.0900 0.7934
108.1000 0.0000
108.1100 1.4331
108.1200 0.5446
108.1300 0.9867
108.1400 0.0000
108.1500 0.0000
108.1600 0.0000
108.1700 0.0000
108.1800 0.0000
108.1900 0.9499
108.2000 0.0000
108.2100 0.4209
108.2200 1.6193
108.2300 0.5926
108.2400 0.3953
108.2500 0.9745
108.2600 0.8579
108.2700 0.1136
108.2800 0.0713
108.2900 1.1031
108.3000 1.4312
108.3100 2.4101
108.3200 0.0000
108.3300 0.9773
108.3400 0.6387
108.3500 1.3310
108.3600 0.0000
108.3700 1.0044
108.3800 0.0000
108.3900 0.0000
108.4000 0.0000
108.4100 1.5812
108.4200 1.7855
108.4300 0.6118
108.4400 1.1729
108.4500 0.8419
108.4600 0.0000
108.4700 1.7844
108.4800 0.2777
108.4900 2.1690
108.5000 2.0397
108.5100 0.8625
108.5200 0.0000
108.5300 0.0000
108.5400 0.0000
108.5500 0.0000
108.5600 0.6956
108.5700 2.0208
108.5800 0.1840
108.5900 0.0000
108.6000 1.0750
108.6100 0.8686
108.6200 0.0000
108.6300 1.0056
108.6400 0.0000
108.6500 0.5514
108.6600 1.0796
108.6700 1.2787
108.6800 0.9330
108.6900 0.0000
108.7000 0.0717
108.7100 2.0288
108.7200 0.8772
108.7300 0.9883
108.7400 0.0000
108.7500 0.0000
108.7600 0.0000
108.7700 0.0000
108.7800 0.0000
108.7900 0.0000
108.8000 1.0464
108.8100 0.0000
108.8200 2.1844
108.8300 0.0000
108.8400 0.3673
108.8500 0.6590
108.8600 1.0202
108.8700 1.0202
108.8800 0.9740
108.8900 1.8042
108.9000 0.1651
108.9100 0.0000
108.9200 0.0000
108.9300 0.0000
108.9400 0.0000
108.9500 1.9533
108.9600 0.9724
108.9700 0.0000
108.9800 0.0000
108.9900 0.0000
109.0000 3.5135
109.0100 2.4517
109.0200 1.9604
109.0300 0.0000
109.0400 1.9513
109.0500 0.0000
109.0600 0.9876
109.0700 0.0000
109.0800 2.5868
109.0900 0.3778
109.1000 0.8356
109.1100 1.2297
109.1200 0.0009
109.1300 1.9742
109.1400 0.0000
109.1500 1.0339
109.1600 0.0000
109.1700 0.0000
109.1800 0.0000
109.1900 1.0147
109.2000 1.4716
109.2100 2.3181
109.2200 0.1443
109.2300 0.0394
109.2400 0.9623
109.2500 0.9795
109.2600 0.0000
109.2700 0.0000
109.2800 0.0000
109.2900 0.0000
109.3000 0.9968
109.3100 0.0000
109.3200 2.8082
109.3300 0.2228
109.3400 0.0000
109.3500 0.0000
109.3600 0.9515
109.3700 0.0000
109.3800 0.0000
109.3900 0.5260
109.4000 0.4310
109.4100 0.0000
109.4200 0.8200
109.4300 1.1984
109.4400 0.0218
109.4500 0.9888
109.4600 0.0000
109.4700 0.0000
109.4800 0.0000
109.4900 0.0000
109.5000 0.0000
109.5100 0.0000
109.5200 0.0000
109.5300 0.0000
109.5400 0.0000
109.5500 0.0000
109.5600 0.1615
109.5700 0.8848
109.5800 0.0000
109.5900 0.0000
109.6000 2.1052
109.6100 1.6161
109.6200 0.3595
109.6300 0.0000
109.6400 0.0000
109.6500 0.0000
109.6600 1.0202
109.6700 0.8739
109.6800 0.0000
109.6900 0.0000
109.7000 0.0000
109.7100 0.0000
109.7200 0.0000
109.7300 2.0005
109.7400 0.9965
109.7500 0.0000
109.7600 0.0000
109.7700 0.0000
109.7800 0.2173
109.7900 0.7234
109.8000 0.9940
109.8100 1.0221
109.8200 0.0000
109.8300 0.6970
109.8400 0.2945
109.8500 0.0000
109.8600 2.0965
109.8700 0.0909
109.8800 1.0411
109.8900 0.8070
109.9000 0.7306
109.9100 1.2780
109.9200 0.9583
109.9300 0.0000
109.9400 0.7524
109.9500 0.2626
109.9600 0.0000
109.9700 0.0000
109.9800 1.1052
109.9900 1.3240
110.0000 1.6087
110.0100 0.3832
110.0200 0.5698
110.0300 0.9790
110.0400 0.0000
110.0500 0.0000
110.0600 0.0000
110.0700 0.9871
110.0800 1.0268
110.0900 1.1119
110.1000 0.0000
110.1100 1.3081
110.1200 0.6546
110.1300 1.0947
110.1400 0.9523
110.1500 0.0000
110.1600 0.0000
110.1700 0.0000
110.1800 0.0000
110.1900 0.0000
110.2000 0.3945
110.2100 1.6228
110.2200 0.0000
110.2300 0.4744
110.2400 0.5165
110.2500 0.0000
110.2600 0.0000
110.2700 1.6920
110.2800 2.1228
110.2900 0.0953
110.3000 0.0000
110.3100 0.0000
110.3200 0.0000
110.3300 0.0000
110.3400 0.0000
110.3500 0.0000
110.3600 0.0000
110.3700 0.0000
110.3800 0.9646
110.3900 1.0388
110.4000 1.9854
110.4100 0.1772
110.4200 0.8191
110.4300 0.0000
110.4400 0.0000
110.4500 0.0000
110.4600 0.0000
110.4700 1.0210
110.4800 0.8230
110.4900 1.0719
110.5000 0.0656
110.5100 0.0000
110.5200 0.0000
110.5300 0.0000
110.5400 1.3710
110.5500 0.5557
110.5600 0.0000
110.5700 0.6988
110.5800 0.3167
110.5900 0.8732
110.6000 1.0651
110.6100 0.0278
110.6200 0.1609
110.6300 2.8777
110.6400 0.0000
110.6500 0.0000
110.6600 0.0000
110.6700 0.0000
110.6800 0.0000
110.6900 0.0000
110.7000 0.0000
110.7100 0.9979
110.7200 0.0000
110.7300 0.0000
110.7400 0.0000
110.7500 0.0000
110.7600 0.0000
110.7700 0.0000
110.7800 0.0000
110.7900 0.0000
110.8000 1.0253
110.8100 0.0000
110.8200 0.0991
110.8300 3.0605
110.8400 1.0856
110.8500 0.7835
110.8600 0.4488
110.8700 0.6057
110.8800 0.0000
110.8900 1.0040
110.9000 0.0000
110.9100 0.9913
110.9200 0.9612
110.9300 0.0956
110.9400 1.0503
110.9500 0.0000
110.9600 1.3106
110.9700 0.6444
110.9800 0.0000
110.9900 0.9696
111.0000 0.0000
111.0100 0.8459
111.0200 2.1844
111.0300 0.0684
111.0400 1.0377
111.0500 0.0000
111.0600 0.0000
111.0700 0.0000
111.0800 0.0000
111.0900 0.0000
111.1000 0.0000
111.1100 1.9898
111.1200 0.0000
111.1300 0.0000
111.1400 0.9535
111.1500 1.1064
111.1600 1.7746
111.1700 0.0000
111.1800 0.0000
111.1900 0.0000
111.2000 0.0000
111.2100 0.0000
111.2200 0.0000
111.2300 0.0000
111.2400 0.9683
111.2500 0.0000
111.2600 0.0000
111.2700 1.0314
111.2800 1.7630
111.2900 1.2314
111.3000 0.0000
111.3100 0.0000
111.3200 0.7545
111.3300 1.0556
111.3400 0.1323
111.3500 0.1029
111.3600 1.9184
111.3700 0.0000
111.3800 1.3696
111.3900 0.7112
111.4000 0.5357
111.4100 0.4889
111.4200 0.6944
111.4300 0.2813
111.4400 1.8517
111.4500 0.0962
111.4600 1.0886
111.4700 0.1790
111.4800 3.1159
111.4900 2.4609
111.5000 0.3511
111.5100 0.0000
111.5200 0.0000
111.5300 0.8016
111.5400 1.2307
111.5500 0.1776
111.5600 2.0145
111.5700 1.8771
111.5800 0.0000
111.5900 0.0000
111.6000 0.8036
111.6100 2.1217
111.6200 0.0000
111.6300 0.0000
111.6400 0.0000
111.6500 0.0000
111.6600 0.0000
111.6700 3.0969
111.6800 0.0000
111.6900 0.0000
111.7000 0.0000
111.7100 0.2862
111.7200 0.3510
111.7300 0.2032
111.7400 0.1154
111.7500 0.8072
111.7600 1.0838
111.7700 0.0784
111.7800 0.0000
111.7900 0.2220
111.8000 1.1544
111.8100 1.6705
111.8200 0.0000
111.8300 0.5861
111.8400 0.4213
111.8500 0.7420
111.8600 1.1794
111.8700 1.0651
111.8800 0.9783
111.8900 0.0000
111.9000 0.0000
111.9100 0.0000
111.9200 0.0000
111.9300 0.0000
111.9400 0.0000
111.9500 0.0000
111.9600 2.8777
111.9700 1.1855
111.9800 0.0000
111.9900 0.9652
112.0000 0.0000
112.0100 0.0000
112.0200 1.0492
112.0300 0.4650
112.0400 1.5971
112.0500 1.6360
112.0600 0.3464
112.0700 0.0000
112.0800 2.0260
112.0900 1.0014
112.1000 0.1276
112.1100 0.8501
112.1200 0.0000
112.1300 1.3824
112.1400 1.0717
112.1500 2.1198
112.1600 1.1151
112.1700 1.3457
112.1800 2.0455
112.1900 0.9627
112.2000 0.9871
112.2100 0.0000
112.2200 0.0000
112.2300 0.0000
112.2400 0.0000
112.2500 0.0000
112.2600 0.9356
112.2700 0.2336
112.2800 0.9958
112.2900 1.6406
112.3000 0.1375
112.3100 1.8920
112.3200 2.0507
112.3300 1.3474
112.3400 1.1029
112.3500 0.6302
112.3600 0.0000
112.3700 0.0000
112.3800 0.0000
112.3900 0.0000
112.4000 0.9496
112.4100 0.0372
112.4200 0.0000
112.4300 0.0000
112.4400 0.0000
112.4500 0.0000
112.4600 0.0000
112.4700 0.6164
112.4800 1.4841
112.4900 1.7702
112.5000 0.1853
112.5100 0.0000
112.5200 0.0000
112.5300 0.0000
112.5400 0.0000
112.5500 2.6944
112.5600 1.2779
112.5700 0.5754
112.5800 0.4394
112.5900 2.6842
112.6000 0.2351
112.6100 0.0000
112.6200 1.0091
112.6300 1.0803
112.6400 0.8608
112.6500 0.3337
112.6600 0.7021
112.6700 0.0000
112.6800 0.5966
112.6900 0.3889
112.7000 0.0000
112.7100 0.0000
112.7200 0.9617
112.7300 0.0000
112.7400 0.0000
112.7500 0.0000
112.7600 1.0008
112.7700 0.0000
112.7800 0.0000
112.7900 0.0000
112.8000 0.0000
112.8100 0.0000
112.8200 0.9849
112.8300 2.0742
112.8400 0.0000
112.8500 0.2135
112.8600 0.8030
112.8700 0.0000
112.8800 0.0000
112.8900 1.0930
112.9000 0.0000
112.9100 0.0000
112.9200 0.8312
112.9300 0.1233
112.9400 1.0034
112.9500 0.0000
112.9600 0.9668
112.9700 0.0000
112.9800 0.0000
112.9900 0.0000
113.0000 0.0000
113.0100 0.0000
113.0200 0.0000
113.0300 1.9269
113.0400 3.1173
113.0500 0.0000
113.0600 1.0115
113.0700 0.0000
113.0800 0.4062
113.0900 1.1386
113.1000 0.5284
113.1100 0.0000
113.1200 0.0000
113.1300 0.9530
113.1400 0.0000
113.1500 1.0556
113.1600 0.1328
113.1700 1.3088
113.1800 1.8851
113.1900 0.6784
113.2000 0.5078
113.2100 0.4804
113.2200 0.0000
113.2300 1.6995
113.2400 1.0703
113.2500 0.1059
113.2600 2.0633
113.2700 0.9563
113.2800 0.0000
113.2900 0.3437
113.3000 0.6020
113.3100 0.0000
113.3200 0.0000
113.3300 0.0000
113.3400 1.7314
113.3500 1.1457
113.3600 1.9940
113.3700 0.9443
113.3800 0.0000
113.3900 1.0036
113.4000 1.0034
113.4100 0.0000
113.4200 0.0000
113.4300 1.6278
113.4400 1.2194
113.4500 0.0000
113.4600 0.0000
113.4700 0.0000
113.4800 0.0000
113.4900 0.2368
113.5000 1.0472
113.5100 1.6417
113.5200 0.0000
113.5300 0.0000
113.5400 0.0000
113.5500 1.6065
113.5600 0.3582
113.5700 1.0259
113.5800 0.0000
113.5900 1.2138
113.6000 0.8112
113.6100 0.0000
113.6200 0.0000
113.6300 0.9356
113.6400 1.6231
113.6500 2.3973
113.6600 0.0000
113.6700 6.9501
113.6800 0.0000
113.6900 0.9723
113.7000 0.4606
113.7100 1.5114
113.7200 0.0000
113.7300 0.0000
113.7400 1.0180
113.7500 0.0000
113.7600 0.0000
113.7700 0.8821
113.7800 0.1042
113.7900 0.0000
113.8000 0.0000
113.8100 0.0000
113.8200 0.0000
113.8300 0.3614
113.8400 0.4231
113.8500 2.4950
113.8600 0.8400
113.8700 1.7254
113.8800 0.3329
113.8900 0.0000
113.9000 0.0000
113.9100 0.9518
113.9200 0.0000
113.9300 0.9710
113.9400 0.0000
113.9500 1.0296
113.9600 0.0000
113.9700 0.0000
113.9800 0.8445
113.9900 1.0858
114.0000 0.9877
114.0100 0.9718
114.0200 0.0000
114.0300 0.0000
114.0400 0.0000
114.0500 0.5287
114.0600 0.4551
114.0700 0.0000
114.0800 0.0000
114.0900 0.9772
114.1000 1.0103
114.1100 1.3065
114.1200 2.9258
114.1300 1.0727
114.1400 1.6601
114.1500 0.0000
114.1600 0.0000
114.1700 0.0000
114.1800 0.0000
114.1900 0.9616
114.2000 0.0000
114.2100 0.0000
114.2200 0.0000
114.2300 0.9850
114.2400 0.0000
114.2500 1.4298
114.2600 0.6122
114.2700 1.0200
114.2800 0.0000
114.2900 0.0000
114.3000 0.0000
114.3100 0.0000
114.3200 2.9679
114.3300 0.1792
114.3400 0.8141
114.3500 0.0000
114.3600 0.0000
114.3700 2.5916
114.3800 0.4540
114.3900 0.0000
114.4000 1.8499
114.4100 2.1338
114.4200 2.0263
114.4300 0.0000
114.4400 1.9990
114.4500 0.3088
114.4600 0.6773
114.4700 0.4926
114.4800 0.4888
114.4900 0.0000
114.5000 0.8030
114.5100 1.2278
114.5200 1.0250
114.5300 3.0368
114.5400 0.0000
114.5500 1.2501
114.5600 1.0944
114.5700 0.6390
114.5800 0.0000
114.5900 0.6294
114.6000 0.3623
114.6100 0.0000
114.6200 2.1137
114.6300 1.0525
114.6400 1.0647
114.6500 1.8548
114.6600 0.0000
114.6700 0.0000
114.6800 0.0000
114.6900 0.0000
114.7000 0.6496
114.7100 0.3156
114.7200 0.0000
114.7300 0.0000
114.7400 0.0000
114.7500 1.0398
114.7600 1.2563
114.7700 1.0532
114.7800 0.6429
114.7900 0.0000
114.8000 0.6965
114.8100 0.4324
114.8200 0.0000
114.8300 0.0000
114.8400 0.9288
114.8500 1.0437
114.8600 0.0000
114.8700 0.0000
114.8800 0.4084
114.8900 0.6891
114.9000 0.0000
114.9100 0.0000
114.9200 1.0301
114.9300 0.0000
114.9400 0.0000
114.9500 0.9832
114.9600 0.1240
114.9700 0.8500
114.9800 0.0000
114.9900 1.0239
115.0000 0.0000
115.0100 0.0000
115.0200 1.7059
115.0300 1.1242
115.0400 0.2160
115.0500 0.9949
115.0600 0.0000
115.0700 0.0000
115.0800 0.0000
115.0900 1.9844
115.1000 0.0000
115.1100 0.0000
115.1200 0.0000
115.1300 0.9812
115.1400 0.0000
115.1500 0.9226
115.1600 0.0794
115.1700 0.0000
115.1800 0.0000
115.1900 0.5998
115.2000 1.4107
115.2100 0.4712
115.2200 1.4951
115.2300 0.0000
115.2400 0.0000
115.2500 0.0000
115.2600 0.0000
115.2700 3.0116
115.2800 0.0000
115.2900 1.0020
115.3000 1.3344
115.3100 0.6581
115.3200 0.0000
115.3300 0.6243
115.3400 0.3829
115.3500 0.0000
115.3600 0.9139
115.3700 1.1149
115.3800 0.0000
115.3900 1.9001
115.4000 0.7612
115.4100 0.0000
115.4200 0.4868
115.4300 0.5503
115.4400 0.6474
115.4500 2.0627
115.4600 1.2148
115.4700 1.8818
115.4800 0.0923
115.4900 1.9480
115.5000 0.9953
115.5100 0.0000
115.5200 0.0000
115.5300 0.0000
115.5400 3.7831
115.5500 1.1920
115.5600 0.0000
115.5700 0.0000
115.5800 0.0000
115.5900 0.9701
115.6000 0.0000
115.6100 0.2653
115.6200 1.0926
115.6300 0.6272
115.6400 4.5712
115.6500 0.4805
115.6600 0.0000
115.6700 1.9637
115.6800 1.1882
115.6900 0.0344
115.7000 2.8616
115.7100 0.3370
115.7200 1.0389
115.7300 0.6739
115.7400 0.0000
115.7500 0.0000
115.7600 1.0231
115.7700 1.7676
115.7800 1.0463
115.7900 0.1259
115.8000 1.0323
115.8100 1.0230
115.8200 0.2344
115.8300 1.7289
115.8400 0.9738
115.8500 1.0121
115.8600 0.6706
115.8700 0.4062
115.8800 0.0000
115.8900 1.9887
115.9000 0.0000
115.9100 1.0368
115.9200 0.9575
115.9300 0.0000
115.9400 1.3893
115.9500 0.6200
115.9600 0.9774
115.9700 2.9533
115.9800 3.5958
115.9900 2.4924
116.0000 0.9665
116.0100 1.0020
116.0200 0.0000
116.0300 0.2237
116.0400 3.9311
116.0500 0.6670
116.0600 0.4891
116.0700 1.1203
116.0800 1.4447
116.0900 0.7916
116.1000 2.8151
116.1100 0.3284
116.1200 0.0000
116.1300 0.5101
116.1400 2.4658
116.1500 1.0270
116.1600 0.9258
116.1700 1.6522
116.1800 1.4285
116.1900 0.0000
116.2000 0.0000
116.2100 0.0000
116.2200 0.0000
116.2300 0.0000
116.2400 0.1985
116.2500 2.8158
116.2600 0.0000
116.2700 0.0000
116.2800 0.6037
116.2900 1.1074
116.3000 0.8071
116.3100 1.9656
116.3200 1.3784
116.3300 0.0455
116.3400 0.0000
116.3500 0.2402
116.3600 2.6953
116.3700 0.0000
116.3800 0.9599
116.3900 0.0000
116.4000 0.7114
116.4100 0.2766
116.4200 1.0469
116.4300 1.0126
116.4400 0.4051
116.4500 3.0805
116.4600 2.7871
116.4700 2.0343
116.4800 0.5918
116.4900 0.0000
116.5000 1.0253
116.5100 0.0000
116.5200 0.0000
116.5300 0.9187
116.5400 2.0008
116.5500 0.0000
116.5600 0.0000
116.5700 0.0000
116.5800 0.3948
116.5900 0.5471
116.6000 0.0000
116.6100 0.0000
116.6200 0.0000
116.6300 0.8975
116.6400 2.0292
116.6500 0.0000
116.6600 0.0000
116.6700 1.2179
116.6800 0.7269
116.6900 0.4419
116.7000 1.5302
116.7100 0.0000
116.7200 0.0000
116.7300 0.0000
116.7400 0.0000
116.7500 0.0000
116.7600 1.0198
116.7700 0.0000
116.7800 0.2998
116.7900 0.6765
116.8000 0.0000
116.8100 0.0000
116.8200 1.7958
116.8300 1.0916
116.8400 1.2245
116.8500 0.9618
116.8600 2.0317
116.8700 0.3155
116.8800 1.9507
116.8900 1.0992
116.9000 1.0853
116.9100 2.0077
116.9200 0.4565
116.9300 1.7835
116.9400 1.1322
116.9500 1.0818
116.9600 2.0572
116.9700 0.9530
116.9800 0.0000
116.9900 0.0000
117.0000 0.0000
117.0100 0.0000
117.0200 0.0000
117.0300 0.9827
117.0400 0.7401
117.0500 1.2467
117.0600 0.0000
117.0700 0.0000
117.0800 0.0000
117.0900 0.0000
117.1000 2.0863
117.1100 0.0000
117.1200 0.0000
117.1300 1.0537
117.1400 0.0000
117.1500 1.7649
117.1600 0.2047
117.1700 0.0000
117.1800 0.0000
117.1900 0.0000
117.2000 0.2800
117.2100 1.1718
117.2200 0.7291
117.2300 0.0000
117.2400 0.0000
117.2500 0.1159
117.2600 0.0400
117.2700 1.9999
117.2800 0.1451
117.2900 0.1336
117.3000 0.0000
117.3100 0.0000
117.3200 1.0771
117.3300 0.0000
117.3400 0.0000
117.3500 1.3436
117.3600 1.3749
117.3700 0.2132
117.3800 0.0000
117.3900 0.0649
117.4000 0.9326
117.4100 0.0000
117.4200 0.0000
117.4300 0.0000
117.4400 0.0000
117.4500 0.0000
117.4600 0.7444
117.4700 0.2811
117.4800 0.0000
117.4900 0.0000
117.5000 0.1102
117.5100 2.2881
117.5200 1.7270
117.5300 0.0000
117.5400 0.0000
117.5500 0.0000
117.5600 0.0000
117.5700 1.0093
117.5800 0.0000
117.5900 0.0000
117.6000 0.0469
117.6100 1.9124
117.6200 0.2339
117.6300 1.7174
117.6400 0.0000
117.6500 0.0000
117.6600 0.0000
117.6700 0.6962
117.6800 0.2869
117.6900 0.0000
117.7000 0.9681
117.7100 1.1158
117.7200 0.1857
117.7300 0.8452
117.7400 0.0000
117.7500 1.0135
117.7600 0.0000
117.7700 0.0000
117.7800 0.0000
117.7900 1.0179
117.8000 1.1000
117.8100 1.0508
117.8200 0.9607
117.8300 0.0000
117.8400 0.0000
117.8500 0.0000
117.8600 1.0069
117.8700 0.0000
117.8800 0.0000
117.8900 0.0000
117.9000 0.9519
117.9100 0.0000
117.9200 1.8904
117.9300 0.0000
117.9400 0.0000
117.9500 0.0000
117.9600 0.8676
117.9700 1.0795
117.9800 0.6374
117.9900 0.3674
118.0000 0.9451
118.0100 1.9486
118.0200 0.0115
118.0300 0.9522
118.0400 0.0000
118.0500 0.2974
118.0600 0.7102
118.0700 0.5022
118.0800 0.5356
118.0900 0.0000
118.1000 0.8242
118.1100 0.2502
118.1200 0.9848
118.1300 0.9528
118.1400 0.0000
118.1500 2.0684
118.1600 0.0000
118.1700 1.4081
118.1800 0.5543
118.1900 0.0000
118.2000 0.0000
118.2100 0.0000
118.2200 0.0000
118.2300 1.9804
118.2400 1.0853
118.2500 0.8991
118.2600 0.2785
118.2700 0.7254
118.2800 0.0000
118.2900 0.0000
118.3000 0.0000
118.3100 0.0000
118.3200 0.0000
118.3300 0.0000
118.3400 0.9700
118.3500 0.0000
118.3600 0.9655
118.3700 0.3037
118.3800 1.7127
118.3900 0.5183
118.4000 1.1697
118.4100 1.4808
118.4200 0.0000
118.4300 0.0000
118.4400 0.0000
118.4500 0.0691
118.4600 0.9049
118.4700 0.0000
118.4800 0.0000
118.4900 0.4526
118.5000 0.5566
118.5100 0.0000
118.5200 0.0000
118.5300 0.9643
118.5400 0.8873
118.5500 2.1573
118.5600 0.0000
118.5700 0.1944
118.5800 0.7602
118.5900 0.0000
118.6000 0.0000
118.6100 0.0000
118.6200 0.0000
118.6300 0.0000
118.6400 0.0000
118.6500 1.0072
118.6600 0.0000
118.6700 0.1460
118.6800 1.8492
118.6900 0.0000
118.7000 0.0000
118.7100 0.0000
118.7200 0.6068
118.7300 0.3726
118.7400 0.0000
118.7500 0.9596
118.7600 0.0000
118.7700 1.0394
118.7800 1.0381
118.7900 0.0000
118.8000 0.3734
118.8100 0.6231
118.8200 0.5661
118.8300 2.4736
118.8400 0.3920
118.8500 0.6735
118.8600 0.6687
118.8700 1.0078
118.8800 0.3225
118.8900 0.0000
118.9000 1.0128
118.9100 0.0000
118.9200 0.0000
118.9300 0.9612
118.9400 0.0000
118.9500 1.0057
118.9600 0.8427
118.9700 0.1095
118.9800 0.0000
118.9900 0.1645
119.0000 0.8137
119.0100 1.0099
119.0200 0.9680
119.0300 0.5217
119.0400 0.4342
119.0500 0.0000
119.0600 0.0000
119.0700 0.0000
119.0800 3.1386
119.0900 0.0000
119.1000 0.2006
119.1100 0.7707
119.1200 0.0000
119.1300 0.0000
119.1400 0.0000
119.1500 1.0683
119.1600 0.0000
119.1700 0.9664
119.1800 0.0000
119.1900 1.1296
119.2000 1.9631
119.2100 0.0000
119.2200 0.0000
119.2300 0.0000
119.2400 0.0000
119.2500 0.0000
119.2600 0.0000
119.2700 0.0000
119.2800 0.0000
119.2900 0.0000
119.3000 0.0000
119.3100 0.5945
119.3200 2.5540
119.3300 0.0000
119.3400 0.0000
119.3500 0.0000
119.3600 1.6786
119.3700 0.3601
119.3800 2.8262
119.3900 0.1509
119.4000 1.9594
119.4100 1.2018
119.4200 1.8472
119.4300 0.9676
119.4400 2.3818
119.4500 1.0736
119.4600 1.4935
119.4700 0.7005
119.4800 3.3362
119.4900 0.0000
119.5000 2.1203
119.5100 1.0401
119.5200 0.0000
119.5300 0.0000
119.5400 0.3597
119.5500 0.6398
119.5600 0.0000
119.5700 0.0000
119.5800 1.0019
119.5900 0.0000
119.6000 0.0000
119.6100 0.0000
119.6200 0.0000
119.6300 0.0000
119.6400 0.9875
119.6500 0.0000
119.6600 0.4965
119.6700 2.7380
119.6800 0.8225
119.6900 1.8007
119.7000 1.0543
119.7100 2.0918
119.7200 1.0478
119.7300 0.8925
119.7400 0.2454
119.7500 1.7108
119.7600 0.0000
119.7700 0.5213
119.7800 0.4605
119.7900 0.0000
119.8000 1.7730
119.8100 0.1726
119.8200 1.9680
119.8300 1.0379
119.8400 0.0000
119.8500 0.0000
119.8600 0.0000
119.8700 0.0000
119.8800 1.1372
119.8900 1.5053
119.9000 1.1020
119.9100 0.2474
119.9200 0.0000
119.9300 0.9808
119.9400 0.1300
119.9500 0.8281
119.9600 0.3098
119.9700 0.6450
119.9800 0.0000
119.9900 0.6322
