#Collected Data-12
#Intensity_unit=counts
#Attenuator_coefficient=1.000000
40.0000 0.0000
40.0100 0.0000
40.0200 0.9696
40.0300 0.8266
40.0400 0.1688
40.0500 0.9987
40.0600 0.0000
40.0700 0.0000
40.0800 0.2989
40.0900 1.6759
40.1000 0.9954
40.1100 0.0000
40.1200 0.0000
40.1300 0.0000
40.1400 1.7372
40.1500 0.2625
40.1600 0.0000
40.1700 0.0000
40.1800 0.0000
40.1900 0.0000
40.2000 0.0000
40.2100 1.4895
40.2200 0.4784
40.2300 0.7421
40.2400 0.2911
40.2500 1.0440
40.2600 0.1070
40.2700 0.9932
40.2800 0.0000
40.2900 1.9419
40.3000 0.9789
40.3100 1.9852
40.3200 1.0150
40.3300 0.6301
40.3400 0.3214
40.3500 0.8808
40.3600 0.1542
40.3700 0.0412
40.3800 2.1185
40.3900 0.9287
40.4000 0.3112
40.4100 0.6524
40.4200 1.4915
40.4300 2.3709
40.4400 0.6725
40.4500 0.2875
40.4600 0.0000
40.4700 0.0000
40.4800 1.9685
40.4900 0.0000
40.5000 0.9859
40.5100 0.0000
40.5200 0.4829
40.5300 2.1442
40.5400 1.1129
40.5500 0.3619
40.5600 1.9060
40.5700 0.1679
40.5800 1.0006
40.5900 0.0000
40.6000 0.0000
40.6100 0.0000
40.6200 0.0000
40.6300 2.5811
40.6400 1.0947
40.6500 1.4606
40.6600 0.7664
40.6700 1.2911
40.6800 0.9972
40.6900 1.1258
40.7000 0.9414
40.7100 0.0000
40.7200 0.0000
40.7300 0.0000
40.7400 0.0000
40.7500 0.0000
40.7600 1.4703
40.7700 0.5685
40.7800 1.7967
40.7900 0.0864
40.8000 1.0197
40.8100 0.9675
40.8200 0.0000
40.8300 0.0000
40.8400 1.9954
40.8500 0.0000
40.8600 2.8078
40.8700 1.1297
40.8800 0.3783
40.8900 0.0238
40.9000 1.0102
40.9100 0.0000
40.9200 0.0000
40.9300 2.1269
40.9400 0.8262
40.9500 1.1397
40.9600 0.0000
40.9700 0.0000
40.9800 0.0000
40.9900 0.8624
41.0000 0.1042
41.0100 0.0000
41.0200 0.0000
41.0300 0.0000
41.0400 0.0000
41.0500 0.4510
41.0600 0.5324
41.0700 1.0405
41.0800 0.7913
41.0900 0.2754
41.1000 0.0000
41.1100 0.0000
41.1200 0.0000
41.1300 0.2335
41.1400 1.8705
41.1500 0.0000
41.1600 2.5045
41.1700 2.5055
41.1800 0.0000
41.1900 1.0080
41.2000 0.9712
41.2100 0.0000
41.2200 0.0000
41.2300 0.0000
41.2400 0.0000
41.2500 0.0000
41.2600 0.4203
41.2700 0.5330
41.2800 0.0000
41.2900 0.0000
41.3000 0.0000
41.3100 0.0000
41.3200 0.0000
41.3300 0.0000
41.3400 0.2018
41.3500 0.8276
41.3600 0.3640
41.3700 0.5818
41.3800 0.5922
41.3900 0.4402
41.4000 0.0000
41.4100 0.8379
41.4200 0.1400
41.4300 1.0116
41.4400 1.4402
41.4500 1.0055
41.4600 0.4744
41.4700 0.4244
41.4800 0.5786
41.4900 0.0000
41.5000 1.0299
41.5100 0.0000
41.5200 1.0029
41.5300 0.0000
41.5400 1.1960
41.5500 0.9580
41.5600 0.0000
41.5700 0.9969
41.5800 0.0000
41.5900 0.0000
41.6000 1.3030
41.6100 2.2238
41.6200 1.3295
41.6300 1.1331
41.6400 2.0120
41.6500 0.0000
41.6600 0.0000
41.6700 0.3042
41.6800 0.6738
41.6900 0.5365
41.7000 0.5369
41.7100 0.9464
41.7200 1.8171
41.7300 1.0950
41.7400 2.2016
41.7500 0.0296
41.7600 0.0000
41.7700 2.2292
41.7800 0.7616
41.7900 2.0028
41.8000 0.9888
41.8100 0.0000
41.8200 0.0000
41.8300 0.9691
41.8400 0.9482
41.8500 0.0872
41.8600 0.0988
41.8700 0.8460
41.8800 0.0000
41.8900 0.0000
41.9000 0.0000
41.9100 0.9783
41.9200 0.9700
41.9300 0.7509
41.9400 1.0940
41.9500 0.1410
41.9600 0.9885
41.9700 0.0000
41.9800 0.0000
41.9900 1.3726
42.0000 0.7172
42.0100 0.0000
42.0200 0.0000
42.0300 0.0000
42.0400 1.0054
42.0500 1.0387
42.0600 1.9979
42.0700 0.0080
42.0800 3.1722
42.0900 3.7694
42.1000 1.0307
42.1100 0.4412
42.1200 1.5588
42.1300 1.6610
42.1400 2.4295
42.1500 1.0482
42.1600 0.9720
42.1700 0.0602
42.1800 2.1617
42.1900 1.8493
42.2000 1.3193
42.2100 1.8225
42.2200 0.0000
42.2300 0.9604
42.2400 0.0000
42.2500 0.0000
42.2600 0.0000
42.2700 0.0000
42.2800 1.1365
42.2900 1.9690
42.3000 2.1998
42.3100 0.7219
42.3200 1.9925
42.3300 0.5424
42.3400 1.1103
42.3500 1.8508
42.3600 2.5141
42.3700 0.0000
42.3800 0.9745
42.3900 1.9677
42.4000 0.9991
42.4100 1.0029
42.4200 0.0000
42.4300 3.0025
42.4400 1.0401
42.4500 0.9670
42.4600 0.8261
42.4700 1.2268
42.4800 0.9352
42.4900 1.0294
42.5000 0.0000
42.5100 0.0000
42.5200 0.0000
42.5300 0.4216
42.5400 0.5613
42.5500 1.2096
42.5600 2.1192
42.5700 1.5453
42.5800 0.0000
42.5900 0.0000
42.6000 2.9905
42.6100 0.3247
42.6200 0.0000
42.6300 0.6494
42.6400 0.0000
42.6500 0.0000
42.6600 3.9882
42.6700 0.0000
42.6800 2.0327
42.6900 1.0113
42.7000 3.8552
42.7100 0.2519
42.7200 1.7151
42.7300 0.6279
42.7400 1.3538
42.7500 1.5128
42.7600 0.4939
42.7700 0.0000
42.7800 0.0000
42.7900 0.0000
42.8000 0.0000
42.8100 2.1030
42.8200 0.9189
42.8300 0.0000
42.8400 0.0000
42.8500 0.0000
42.8600 0.0000
42.8700 0.0000
42.8800 0.0000
42.8900 0.0000
42.9000 0.0000
42.9100 0.0000
42.9200 0.0000
42.9300 0.0000
42.9400 0.0000
42.9500 0.0000
42.9600 0.0000
42.9700 0.0000
42.9800 0.0000
42.9900 0.0000
43.0000 1.7178
43.0100 0.2669
43.0200 0.0554
43.0300 1.9521
43.0400 0.0000
43.0500 0.0000
43.0600 1.0253
43.0700 1.0173
43.0800 1.0299
43.0900 0.0000
43.1000 0.0000
43.1100 0.0000
43.1200 1.0827
43.1300 0.0000
43.1400 0.0000
43.1500 0.0000
43.1600 0.0000
43.1700 0.0000
43.1800 1.4569
43.1900 0.3940
43.2000 0.0000
43.2100 1.0056
43.2200 0.0000
43.2300 0.0000
43.2400 0.1306
43.2500 1.3117
43.2600 1.5291
43.2700 0.0000
43.2800 0.0000
43.2900 0.0000
43.3000 0.0000
43.3100 0.7582
43.3200 0.1995
43.3300 0.0000
43.3400 0.0000
43.3500 0.0000
43.3600 0.5073
43.3700 1.7726
43.3800 0.6386
43.3900 0.9502
43.4000 0.0000
43.4100 0.0000
43.4200 0.0000
43.4300 0.0000
43.4400 0.0000
43.4500 0.0000
43.4600 0.0000
43.4700 0.0000
43.4800 0.0000
43.4900 0.0000
43.5000 0.0000
43.5100 0.0000
43.5200 0.0000
43.5300 0.8272
43.5400 1.1512
43.5500 2.2278
43.5600 1.1118
43.5700 0.8139
43.5800 0.0000
43.5900 0.0000
43.6000 0.5138
43.6100 0.4571
43.6200 0.0000
43.6300 0.0000
43.6400 0.0000
43.6500 0.9800
43.6600 1.9542
43.6700 0.9517
43.6800 0.9931
43.6900 0.0000
43.7000 0.8998
43.7100 1.0021
43.7200 0.9393
43.7300 0.7414
43.7400 0.2389
43.7500 0.9097
43.7600 0.0907
43.7700 1.9237
43.7800 0.9740
43.7900 0.3370
43.8000 1.1128
43.8100 0.5665
43.8200 0.9747
43.8300 0.0000
43.8400 1.7867
43.8500 0.2101
43.8600 3.9869
43.8700 1.1353
43.8800 0.9855
43.8900 1.0030
43.9000 0.0000
43.9100 0.0000
43.9200 1.5334
43.9300 1.7234
43.9400 0.7040
43.9500 2.4742
43.9600 1.4189
43.9700 0.0931
43.9800 0.9376
43.9900 0.0000
44.0000 0.9956
44.0100 0.0000
44.0200 0.0000
44.0300 1.6593
44.0400 0.4425
44.0500 0.0000
44.0600 0.9765
44.0700 0.0000
44.0800 0.0000
44.0900 0.0000
44.1000 0.9833
44.1100 0.0000
44.1200 0.0000
44.1300 0.4444
44.1400 1.0447
44.1500 1.3362
44.1600 1.0346
44.1700 0.9289
44.1800 2.1452
44.1900 0.0000
44.2000 1.0164
44.2100 0.0000
44.2200 1.3662
44.2300 0.6309
44.2400 1.0585
44.2500 0.0000
44.2600 0.8324
44.2700 1.0882
44.2800 1.0865
44.2900 0.0410
44.3000 0.9266
44.3100 2.2016
44.3200 2.6903
44.3300 0.0000
44.3400 0.5112
44.3500 5.3351
44.3600 0.6868
44.3700 1.1400
44.3800 0.2158
44.3900 3.0060
44.4000 0.9751
44.4100 0.9834
44.4200 1.3089
44.4300 1.1282
44.4400 0.6405
44.4500 2.0126
44.4600 0.8528
44.4700 0.0000
44.4800 0.5221
44.4900 0.1025
44.5000 0.3123
44.5100 0.0000
44.5200 0.0000
44.5300 0.0000
44.5400 1.4279
44.5500 0.5989
44.5600 0.0000
44.5700 0.6628
44.5800 1.3351
44.5900 1.9208
44.6000 0.1306
44.6100 2.0251
44.6200 0.0000
44.6300 0.0000
44.6400 0.0000
44.6500 0.0000
44.6600 0.0000
44.6700 0.0000
44.6800 0.0000
44.6900 1.7158
44.7000 0.3814
44.7100 0.0067
44.7200 3.2220
44.7300 1.1085
44.7400 1.1320
44.7500 1.7232
44.7600 0.0000
44.7700 0.0000
44.7800 0.9622
44.7900 0.0000
44.8000 0.0000
44.8100 0.0000
44.8200 1.0057
44.8300 0.0000
44.8400 1.0014
44.8500 1.3626
44.8600 2.9236
44.8700 1.7256
44.8800 1.9288
44.8900 1.5518
44.9000 2.6574
44.9100 2.7421
44.9200 2.1810
44.9300 3.1213
44.9400 0.9025
44.9500 1.2688
44.9600 0.7120
44.9700 1.4861
44.9800 0.5442
44.9900 1.2516
45.0000 3.3727
45.0100 3.8438
45.0200 2.3869
45.0300 2.0806
45.0400 2.1040
45.0500 4.7663
45.0600 0.2899
45.0700 6.1598
45.0800 5.6371
45.0900 4.6261
45.1000 5.4150
45.1100 6.0144
45.1200 9.9261
45.1300 6.0175
45.1400 13.4930
45.1500 13.5130
45.1600 12.2132
45.1700 12.7784
45.1800 13.5138
45.1900 19.3391
45.2000 19.0652
45.2100 19.4114
45.2200 23.2767
45.2300 20.7676
45.2400 11.8471
45.2500 20.6784
45.2600 18.1624
45.2700 16.2296
45.2800 11.6191
45.2900 14.2398
45.3000 15.9292
45.3100 7.4476
45.3200 11.1579
45.3300 6.4435
45.3400 5.2268
45.3500 8.4940
45.3600 7.9963
45.3700 14.4507
45.3800 6.5405
45.3900 6.4465
45.4000 5.2131
45.4100 6.4719
45.4200 3.2003
45.4300 4.6404
45.4400 2.7157
45.4500 2.0156
45.4600 3.2488
45.4700 1.8589
45.4800 0.9884
45.4900 1.0813
45.5000 3.6974
45.5100 2.0420
45.5200 0.6330
45.5300 2.0571
45.5400 2.1901
45.5500 0.9403
45.5600 1.0296
45.5700 0.9874
45.5800 0.2348
45.5900 0.8361
45.6000 0.4074
45.6100 1.6133
45.6200 0.0000
45.6300 1.9945
45.6400 0.8495
45.6500 1.2132
45.6600 1.0064
45.6700 0.0700
45.6800 0.9472
45.6900 2.2636
45.7000 0.7260
45.7100 0.9478
45.7200 0.0000
45.7300 0.0000
45.7400 0.7559
45.7500 0.2802
45.7600 1.0169
45.7700 0.9710
45.7800 1.9786
45.7900 2.2346
45.8000 2.3780
45.8100 2.3942
45.8200 1.9297
45.8300 1.5959
45.8400 1.4466
45.8500 0.0000
45.8600 0.8942
45.8700 0.1428
45.8800 0.9903
45.8900 0.0000
45.9000 0.9710
45.9100 0.6364
45.9200 2.7446
45.9300 1.0649
45.9400 1.0620
45.9500 0.3677
45.9600 0.0000
45.9700 0.0000
45.9800 1.8939
45.9900 0.1004
46.0000 1.8850
46.0100 0.0000
46.0200 1.0309
46.0300 0.0000
46.0400 0.5468
46.0500 1.0810
46.0600 0.3432
46.0700 0.8204
46.0800 0.1510
46.0900 0.9742
46.1000 0.0000
46.1100 0.0000
46.1200 0.0000
46.1300 0.0000
46.1400 0.4934
46.1500 1.4345
46.1600 0.0000
46.1700 0.0000
46.1800 0.9903
46.1900 0.0000
46.2000 1.1359
46.2100 0.0000
46.2200 0.9592
46.2300 0.0000
46.2400 0.4335
46.2500 0.5314
46.2600 0.6634
46.2700 2.1372
46.2800 1.1220
46.2900 3.2023
46.3000 1.0161
46.3100 1.0215
46.3200 0.2035
46.3300 0.7921
46.3400 0.0000
46.3500 0.0000
46.3600 0.5775
46.3700 0.4148
46.3800 0.7600
46.3900 0.2260
46.4000 0.3429
46.4100 0.0907
46.4200 1.5905
46.4300 0.0000
46.4400 0.0000
46.4500 1.0372
46.4600 1.4981
46.4700 0.4585
46.4800 1.0166
46.4900 0.7923
46.5000 2.2394
46.5100 0.0000
46.5200 0.9865
46.5300 0.3714
46.5400 1.6178
46.5500 0.0000
46.5600 0.4741
46.5700 0.5348
46.5800 0.9851
46.5900 0.0000
46.6000 0.9724
46.6100 1.9296
46.6200 1.1050
46.6300 0.0000
46.6400 0.2108
46.6500 0.7257
46.6600 0.9748
46.6700 0.0000
46.6800 0.0000
46.6900 0.0000
46.7000 1.7680
46.7100 0.2095
46.7200 0.0000
46.7300 1.2780
46.7400 0.9413
46.7500 0.9598
46.7600 0.7056
46.7700 1.2666
46.7800 0.0000
46.7900 0.0000
46.8000 1.9739
46.8100 0.0000
46.8200 0.0000
46.8300 0.0000
46.8400 0.0000
46.8500 0.0000
46.8600 0.5798
46.8700 1.3417
46.8800 0.5360
46.8900 1.1282
46.9000 0.4055
46.9100 0.7934
46.9200 0.2321
46.9300 0.0000
46.9400 0.0000
46.9500 0.9627
46.9600 0.0000
46.9700 0.0000
46.9800 0.4330
46.9900 0.5637
47.0000 1.0360
47.0100 0.0000
47.0200 1.0362
47.0300 0.8942
47.0400 0.0932
47.0500 1.0628
47.0600 1.0603
47.0700 2.1499
47.0800 0.0000
47.0900 0.0000
47.1000 0.0000
47.1100 0.0000
47.1200 0.9746
47.1300 0.0000
47.1400 1.0021
47.1500 1.0213
47.1600 3.2242
47.1700 1.7724
47.1800 0.9712
47.1900 2.4199
47.2000 2.0441
47.2100 0.4804
47.2200 0.0000
47.2300 2.1232
47.2400 1.0746
47.2500 0.0000
47.2600 0.0000
47.2700 0.0000
47.2800 0.2923
47.2900 1.1776
47.3000 1.6269
47.3100 0.0000
47.3200 1.0092
47.3300 1.7137
47.3400 1.2729
47.3500 0.0000
47.3600 0.0000
47.3700 0.9675
47.3800 1.0179
47.3900 0.0000
47.4000 0.0000
47.4100 0.0000
47.4200 0.9824
47.4300 0.0000
47.4400 0.0000
47.4500 0.9799
47.4600 0.9129
47.4700 0.0327
47.4800 0.1568
47.4900 0.8603
47.5000 0.0000
47.5100 1.4641
47.5200 1.6023
47.5300 1.0586
47.5400 0.0000
47.5500 0.7968
47.5600 0.1809
47.5700 0.0116
47.5800 3.1136
47.5900 0.0000
47.6000 0.0000
47.6100 0.3626
47.6200 1.0866
47.6300 0.5491
47.6400 1.0473
47.6500 0.0000
47.6600 0.9969
47.6700 2.0810
47.6800 0.0000
47.6900 0.0000
47.7000 0.0000
47.7100 1.0701
47.7200 0.0000
47.7300 0.5043
47.7400 3.0179
47.7500 0.3803
47.7600 0.0000
47.7700 0.0000
47.7800 0.0000
47.7900 0.0822
47.8000 0.9405
47.8100 2.2738
47.8200 0.0000
47.8300 1.6458
47.8400 0.0000
47.8500 0.0000
47.8600 0.0000
47.8700 0.0000
47.8800 1.0903
47.8900 0.0249
47.9000 0.9969
47.9100 0.9896
47.9200 0.0000
47.9300 0.0000
47.9400 0.0000
47.9500 0.9808
47.9600 0.0000
47.9700 0.0000
47.9800 0.0000
47.9900 0.0000
48.0000 0.0631
48.0100 0.9441
48.0200 0.1404
48.0300 0.0000
48.0400 0.9828
48.0500 0.0000
48.0600 1.0552
48.0700 2.0340
48.0800 1.0173
48.0900 0.0000
48.1000 0.0000
48.1100 0.0000
48.1200 0.9747
48.1300 0.0000
48.1400 0.9530
48.1500 0.0000
48.1600 0.0000
48.1700 0.0000
48.1800 1.5001
48.1900 0.4691
48.2000 0.0000
48.2100 0.9894
48.2200 1.1187
48.2300 0.8368
48.2400 0.0000
48.2500 0.0000
48.2600 2.0272
48.2700 0.0000
48.2800 0.0000
48.2900 1.0652
48.3000 0.0000
48.3100 0.0000
48.3200 1.0239
48.3300 0.0000
48.3400 0.9615
48.3500 0.3625
48.3600 0.6267
48.3700 1.0299
48.3800 0.0000
48.3900 0.0000
48.4000 0.0000
48.4100 0.0000
48.4200 0.0000
48.4300 0.0000
48.4400 0.2119
48.4500 0.7688
48.4600 0.8054
48.4700 2.1392
48.4800 0.0000
48.4900 0.0000
48.5000 0.9752
48.5100 0.0000
48.5200 0.9645
48.5300 0.0939
48.5400 0.9302
48.5500 0.9406
48.5600 0.0000
48.5700 0.0000
48.5800 0.0000
48.5900 0.0000
48.6000 0.0000
48.6100 0.0000
48.6200 0.0000
48.6300 0.0000
48.6400 0.9455
48.6500 1.0643
48.6600 0.2997
48.6700 1.6665
48.6800 3.9556
48.6900 1.0641
48.7000 2.0123
48.7100 0.9672
48.7200 2.9796
48.7300 0.0000
48.7400 2.9098
48.7500 0.0000
48.7600 0.9341
48.7700 0.3214
48.7800 1.6665
48.7900 0.0000
48.8000 1.0154
48.8100 0.7184
48.8200 2.8983
48.8300 2.2584
48.8400 0.1014
48.8500 1.0062
48.8600 0.0000
48.8700 0.0000
48.8800 0.0000
48.8900 0.0000
48.9000 0.0000
48.9100 0.0000
48.9200 0.7359
48.9300 2.3611
48.9400 0.0000
48.9500 1.0016
48.9600 1.9683
48.9700 0.0000
48.9800 0.0000
48.9900 0.0000
49.0000 0.0000
49.0100 1.0383
49.0200 0.0000
49.0300 0.0000
49.0400 0.0000
49.0500 0.9578
49.0600 0.0255
49.0700 0.3308
49.0800 1.7001
49.0900 0.0000
49.1000 1.4090
49.1100 1.1117
49.1200 0.4672
49.1300 0.0000
49.1400 0.0000
49.1500 0.9638
49.1600 0.0128
49.1700 1.0157
49.1800 0.0000
49.1900 0.0000
49.2000 1.5404
49.2100 0.6093
49.2200 0.0000
49.2300 1.6795
49.2400 1.2581
49.2500 0.8545
49.2600 0.1368
49.2700 1.0287
49.2800 1.0241
49.2900 0.0000
49.3000 1.0312
49.3100 0.0000
49.3200 0.0000
49.3300 0.6343
49.3400 0.3935
49.3500 0.0000
49.3600 0.8676
49.3700 2.0961
49.3800 0.0052
49.3900 1.1350
49.4000 0.8260
49.4100 0.0000
49.4200 0.0000
49.4300 0.5431
49.4400 0.4249
49.4500 0.7150
49.4600 1.2197
49.4700 1.0035
49.4800 0.1302
49.4900 1.8907
49.5000 0.0000
49.5100 2.1125
49.5200 0.4397
49.5300 1.1018
49.5400 0.4613
49.5500 0.0000
49.5600 0.0000
49.5700 2.7252
49.5800 0.3625
49.5900 0.0000
49.6000 0.0000
49.6100 0.2640
49.6200 0.7507
49.6300 0.0000
49.6400 0.5623
49.6500 0.4726
49.6600 0.0000
49.6700 0.0000
49.6800 0.0000
49.6900 0.0000
49.7000 0.0000
49.7100 0.0000
49.7200 0.0000
49.7300 1.0604
49.7400 0.0000
49.7500 0.9734
49.7600 1.9209
49.7700 0.7590
49.7800 1.1971
49.7900 0.0000
49.8000 1.0196
49.8100 0.1451
49.8200 2.0969
49.8300 0.7393
49.8400 0.0000
49.8500 0.0000
49.8600 0.0000
49.8700 0.0000
49.8800 0.0000
49.8900 0.9427
49.9000 1.1414
49.9100 0.9806
49.9200 0.1810
49.9300 0.7899
49.9400 2.9624
49.9500 2.0236
49.9600 0.0000
49.9700 0.6437
49.9800 0.3340
49.9900 0.9831
50.0000 0.9197
50.0100 0.0571
50.0200 0.0000
50.0300 0.9769
50.0400 0.0000
50.0500 0.4312
50.0600 0.6116
50.0700 0.0000
50.0800 0.0000
50.0900 1.0008
50.1000 0.9622
50.1100 0.1244
50.1200 0.0000
50.1300 0.0000
50.1400 1.0029
50.1500 0.0000
50.1600 0.9659
50.1700 0.0000
50.1800 0.0000
50.1900 0.7296
50.2000 0.2630
50.2100 0.0000
50.2200 0.0183
50.2300 2.9865
50.2400 0.0000
50.2500 0.2950
50.2600 1.0607
50.2700 1.0499
50.2800 1.6622
50.2900 0.6645
50.3000 1.0495
50.3100 0.2155
50.3200 0.0000
50.3300 0.0000
50.3400 0.0000
50.3500 0.0000
50.3600 2.0120
50.3700 0.0000
50.3800 0.9592
50.3900 0.6312
50.4000 1.1386
50.4100 1.1186
50.4200 1.0508
50.4300 0.4035
50.4400 0.1532
50.4500 1.6504
50.4600 1.3643
50.4700 1.4006
50.4800 0.0000
50.4900 0.0000
50.5000 0.0000
50.5100 1.0305
50.5200 0.0000
50.5300 0.0000
50.5400 0.0000
50.5500 0.0000
50.5600 0.0000
50.5700 0.3470
50.5800 2.2259
50.5900 1.1184
50.6000 1.4170
50.6100 0.0000
50.6200 0.0000
50.6300 0.0000
50.6400 0.0000
50.6500 0.0000
50.6600 0.0000
50.6700 0.0000
50.6800 0.0000
50.6900 0.4510
50.7000 0.5408
50.7100 0.0000
50.7200 2.3707
50.7300 1.2402
50.7400 0.3157
50.7500 0.0000
50.7600 0.0000
50.7700 0.0000
50.7800 0.0000
50.7900 1.0274
50.8000 0.9772
50.8100 0.7252
50.8200 0.9866
50.8300 0.0000
50.8400 1.8850
50.8500 1.0909
50.8600 0.0345
50.8700 0.9615
50.8800 0.2616
50.8900 1.1552
50.9000 1.6615
50.9100 0.9944
50.9200 0.0000
50.9300 0.0000
50.9400 0.9774
50.9500 0.9427
50.9600 0.9810
50.9700 0.0000
50.9800 0.0000
50.9900 0.0000
51.0000 0.0000
51.0100 0.0000
51.0200 0.0000
51.0300 0.0000
51.0400 0.0000
51.0500 0.9941
51.0600 0.0000
51.0700 1.0916
51.0800 2.0340
51.0900 0.0000
51.1000 0.9827
51.1100 0.4219
51.1200 0.5843
51.1300 0.9466
51.1400 3.0276
51.1500 1.8628
51.1600 0.0000
51.1700 0.9877
51.1800 1.1121
51.1900 1.9044
51.2000 0.0370
51.2100 0.1006
51.2200 0.4395
51.2300 1.0367
51.2400 0.4186
51.2500 1.1095
51.2600 1.7992
51.2700 1.1623
51.2800 0.0000
51.2900 0.1129
51.3000 0.8403
51.3100 0.0000
51.3200 0.0000
51.3300 2.4826
51.3400 0.4983
51.3500 0.0000
51.3600 0.7946
51.3700 1.0824
51.3800 0.1241
51.3900 0.0643
51.4000 0.9663
51.4100 0.0000
51.4200 0.0000
51.4300 0.0000
51.4400 0.0000
51.4500 0.0000
51.4600 1.0087
51.4700 0.8175
51.4800 1.0556
51.4900 0.0902
51.5000 1.0311
51.5100 1.1082
51.5200 2.0873
51.5300 2.0746
51.5400 0.6281
51.5500 0.0000
51.5600 0.0000
51.5700 0.0000
51.5800 0.0000
51.5900 0.0000
51.6000 0.0000
51.6100 0.0000
51.6200 0.2350
51.6300 0.7718
51.6400 0.0000
51.6500 0.9763
51.6600 0.0000
51.6700 0.7054
51.6800 1.0695
51.6900 0.1940
51.7000 0.0000
51.7100 0.0000
51.7200 1.9534
51.7300 1.0184
51.7400 0.0000
51.7500 0.9881
51.7600 0.0000
51.7700 1.0151
51.7800 0.0000
51.7900 0.0000
51.8000 0.9794
51.8100 0.0000
51.8200 0.9947
51.8300 0.0000
51.8400 0.9942
51.8500 1.3425
51.8600 1.5921
51.8700 0.0000
51.8800 0.7063
51.8900 0.3208
51.9000 1.8978
51.9100 1.0900
51.9200 2.0524
51.9300 0.9838
51.9400 0.3126
51.9500 0.0000
51.9600 0.6252
51.9700 0.9478
51.9800 0.0000
51.9900 0.0000
52.0000 0.0000
52.0100 0.9620
52.0200 1.9612
52.0300 1.9823
52.0400 0.9447
52.0500 1.0009
52.0600 0.0000
52.0700 0.9547
52.0800 3.1644
52.0900 1.7485
52.1000 0.0000
52.1100 0.0000
52.1200 0.0000
52.1300 0.0471
52.1400 0.9438
52.1500 1.0199
52.1600 0.3284
52.1700 2.6245
52.1800 0.5008
52.1900 2.0169
52.2000 1.1543
52.2100 1.2396
52.2200 0.0000
52.2300 2.9907
52.2400 0.0257
52.2500 0.0000
52.2600 0.0000
52.2700 0.3698
52.2800 2.0612
52.2900 0.5354
52.3000 0.6347
52.3100 0.3384
52.3200 0.8391
52.3300 0.1586
52.3400 1.9658
52.3500 0.1244
52.3600 0.8768
52.3700 0.0000
52.3800 0.9468
52.3900 1.9501
52.4000 0.5873
52.4100 0.3978
52.4200 1.5369
52.4300 1.4122
52.4400 2.0110
52.4500 1.0883
52.4600 2.8850
52.4700 0.0000
52.4800 0.9426
52.4900 0.0000
52.5000 0.0000
52.5100 0.0000
52.5200 0.0000
52.5300 0.0000
52.5400 0.0000
52.5500 0.0121
52.5600 0.9873
52.5700 0.0000
52.5800 0.2879
52.5900 0.6872
52.6000 0.0000
52.6100 1.1943
52.6200 0.8702
52.6300 0.0000
52.6400 0.0000
52.6500 0.9884
52.6600 0.0000
52.6700 0.0000
52.6800 0.0000
52.6900 0.3256
52.7000 0.6504
52.7100 1.0355
52.7200 2.5530
52.7300 0.3743
52.7400 1.0381
52.7500 1.7748
52.7600 3.1388
52.7700 0.9984
52.7800 0.0000
52.7900 2.0185
52.8000 0.0000
52.8100 0.0000
52.8200 0.0000
52.8300 0.0000
52.8400 0.0000
52.8500 0.8672
52.8600 1.1989
52.8700 0.9734
52.8800 2.2109
52.8900 2.0937
52.9000 1.9216
52.9100 0.0000
52.9200 1.9956
52.9300 0.5643
52.9400 3.3852
52.9500 2.0004
52.9600 1.1270
52.9700 0.0000
52.9800 0.9489
52.9900 0.1653
53.0000 0.8335
53.0100 1.3014
53.0200 0.6365
53.0300 1.0060
53.0400 0.0000
53.0500 0.7158
53.0600 1.0812
53.0700 1.0483
53.0800 0.0755
53.0900 0.1121
53.1000 1.1119
53.1100 0.7795
53.1200 0.9564
53.1300 0.4899
53.1400 1.4819
53.1500 0.0000
53.1600 1.0135
53.1700 0.0000
53.1800 0.9807
53.1900 2.2172
53.2000 3.9734
53.2100 0.8274
53.2200 0.0000
53.2300 0.6532
53.2400 0.0000
53.2500 0.3266
53.2600 0.9678
53.2700 0.9970
53.2800 0.8752
53.2900 1.0536
53.3000 0.1903
53.3100 2.8795
53.3200 0.0000
53.3300 0.3784
53.3400 0.6310
53.3500 0.0000
53.3600 0.0000
53.3700 0.0000
53.3800 0.0000
53.3900 0.8818
53.4000 0.0551
53.4100 0.0000
53.4200 0.0000
53.4300 0.0000
53.4400 0.0000
53.4500 0.0000
53.4600 1.9294
53.4700 0.0000
53.4800 1.6479
53.4900 0.4360
53.5000 1.9588
53.5100 0.0955
53.5200 0.9393
53.5300 0.0000
53.5400 0.9967
53.5500 1.0220
53.5600 0.0000
53.5700 0.0000
53.5800 0.0000
53.5900 0.0000
53.6000 0.0000
53.6100 0.9372
53.6200 1.3574
53.6300 0.8288
53.6400 0.6494
53.6500 0.0000
53.6600 0.9661
53.6700 0.6098
53.6800 0.4339
53.6900 0.0000
53.7000 0.0000
53.7100 0.0000
53.7200 0.0000
53.7300 0.0000
53.7400 0.2299
53.7500 0.7084
53.7600 0.4189
53.7700 2.0405
53.7800 1.0571
53.7900 1.3164
53.8000 3.0346
53.8100 0.0000
53.8200 0.0000
53.8300 0.0000
53.8400 0.1909
53.8500 0.8193
53.8600 0.0000
53.8700 0.0000
53.8800 0.0000
53.8900 1.0083
53.9000 0.0000
53.9100 0.0000
53.9200 0.0000
53.9300 0.0000
53.9400 0.0000
53.9500 0.2263
53.9600 1.7942
53.9700 1.3802
53.9800 0.5620
53.9900 0.0000
54.0000 0.6764
54.0100 1.1127
54.0200 0.2136
54.0300 0.0000
54.0400 0.9814
54.0500 0.0000
54.0600 0.0000
54.0700 0.0000
54.0800 0.0000
54.0900 0.5472
54.1000 5.9675
54.1100 2.3974
54.1200 3.0835
54.1300 1.3101
54.1400 2.9835
54.1500 0.4634
54.1600 4.8175
54.1700 1.1129
54.1800 0.6965
54.1900 1.5227
54.2000 1.5672
54.2100 1.0928
54.2200 0.0000
54.2300 0.0000
54.2400 0.0000
54.2500 1.0203
54.2600 0.0000
54.2700 0.2410
54.2800 0.7309
54.2900 2.4413
54.3000 1.5331
54.3100 0.6771
54.3200 0.4053
54.3300 0.0000
54.3400 0.0000
54.3500 0.9818
54.3600 0.9563
54.3700 0.0000
54.3800 0.0000
54.3900 0.0000
54.4000 1.4038
54.4100 1.4434
54.4200 0.0000
54.4300 0.0000
54.4400 0.8098
54.4500 0.1400
54.4600 0.9873
54.4700 0.0000
54.4800 0.0000
54.4900 0.3347
54.5000 2.1152
54.5100 0.6050
54.5200 0.0000
54.5300 0.0000
54.5400 0.0000
54.5500 0.0000
54.5600 0.0000
54.5700 0.0000
54.5800 0.1606
54.5900 1.0123
54.6000 2.0576
54.6100 1.1022
54.6200 1.0985
54.6300 1.0605
54.6400 1.0562
54.6500 1.0761
54.6600 1.1392
54.6700 0.0000
54.6800 0.0000
54.6900 0.2442
54.7000 0.9049
54.7100 0.0000
54.7200 1.0511
54.7300 0.5954
54.7400 1.3840
54.7500 0.0000
54.7600 1.6563
54.7700 0.2404
54.7800 1.8732
54.7900 0.0000
54.8000 0.0000
54.8100 0.0000
54.8200 0.0000
54.8300 0.0000
54.8400 0.5934
54.8500 0.3509
54.8600 0.0000
54.8700 0.9180
54.8800 1.0168
54.8900 0.0000
54.9000 1.9856
54.9100 0.0000
54.9200 0.3863
54.9300 0.6208
54.9400 0.6165
54.9500 0.4606
54.9600 1.0316
54.9700 0.9615
54.9800 0.0000
54.9900 0.9946
55.0000 0.0000
55.0100 0.0000
55.0200 0.0000
55.0300 0.0000
55.0400 2.4797
55.0500 0.5241
55.0600 0.0000
55.0700 0.0000
55.0800 0.0000
55.0900 0.0000
55.1000 0.0000
55.1100 0.0000
55.1200 0.0000
55.1300 2.2943
55.1400 2.6108
55.1500 1.5232
55.1600 3.3017
55.1700 2.0362
55.1800 2.8273
55.1900 2.9251
55.2000 2.2622
55.2100 1.8794
55.2200 1.0186
55.2300 0.0000
55.2400 1.3864
55.2500 0.5874
55.2600 0.0000
55.2700 0.0000
55.2800 0.0000
55.2900 0.0000
55.3000 2.0120
55.3100 0.0000
55.3200 0.0000
55.3300 0.0000
55.3400 0.0000
55.3500 0.4328
55.3600 0.5452
55.3700 0.0000
55.3800 2.3686
55.3900 1.4697
55.4000 0.0000
55.4100 0.0000
55.4200 0.9543
55.4300 1.1161
55.4400 0.0000
55.4500 0.0000
55.4600 1.2757
55.4700 0.0000
55.4800 0.6112
55.4900 0.0000
55.5000 0.8609
55.5100 0.1420
55.5200 2.9621
55.5300 0.0000
55.5400 0.9588
55.5500 1.3037
55.5600 1.6375
55.5700 0.0000
55.5800 1.0652
55.5900 0.0000
55.6000 0.0000
55.6100 0.0000
55.6200 0.0000
55.6300 0.1714
55.6400 3.7930
55.6500 0.0000
55.6600 0.3666
55.6700 0.6276
55.6800 0.0000
55.6900 0.6420
55.7000 0.3428
55.7100 0.0000
55.7200 1.8989
55.7300 0.1317
55.7400 0.0000
55.7500 0.0000
55.7600 0.0000
55.7700 2.0042
55.7800 0.9749
55.7900 1.1722
55.8000 1.4719
55.8100 1.0723
55.8200 1.2805
55.8300 0.9723
55.8400 0.0265
55.8500 0.0000
55.8600 0.0000
55.8700 0.0000
55.8800 0.0000
55.8900 0.0000
55.9000 0.0000
55.9100 0.7443
55.9200 0.2772
55.9300 0.0000
55.9400 0.0000
55.9500 0.0000
55.9600 0.0000
55.9700 1.2549
55.9800 1.0586
55.9900 0.5878
56.0000 0.0000
56.0100 0.0000
56.0200 0.0000
56.0300 0.0000
56.0400 0.0000
56.0500 0.0000
56.0600 0.0000
56.0700 0.0000
56.0800 1.3173
56.0900 0.6990
56.1000 0.0000
56.1100 0.0000
56.1200 0.0000
56.1300 1.2974
56.1400 2.2115
56.1500 1.5339
56.1600 1.0170
56.1700 0.0000
56.1800 0.0000
56.1900 0.0000
56.2000 1.0188
56.2100 0.0000
56.2200 0.0000
56.2300 1.0174
56.2400 0.0000
56.2500 0.0000
56.2600 0.0670
56.2700 2.1281
56.2800 0.8785
56.2900 0.0000
56.3000 1.0018
56.3100 0.0000
56.3200 1.1405
56.3300 0.7642
56.3400 2.6020
56.3500 0.4255
56.3600 0.0000
56.3700 0.0729
56.3800 1.2970
56.3900 1.9731
56.4000 1.1053
56.4100 1.1267
56.4200 0.5625
56.4300 0.0000
56.4400 0.0000
56.4500 0.0000
56.4600 0.8481
56.4700 0.0886
56.4800 2.9608
56.4900 0.0000
56.5000 0.9986
56.5100 0.3832
56.5200 0.5937
56.5300 0.0000
56.5400 1.7001
56.5500 0.3278
56.5600 0.8851
56.5700 0.1390
56.5800 0.0000
56.5900 0.9699
56.6000 0.1501
56.6100 0.4706
56.6200 1.1666
56.6300 0.1767
56.6400 0.0000
56.6500 1.9775
56.6600 1.0121
56.6700 0.0000
56.6800 0.9735
56.6900 0.0000
56.7000 2.2155
56.7100 0.8182
56.7200 1.3446
56.7300 1.0986
56.7400 0.5460
56.7500 0.0000
56.7600 0.0000
56.7700 0.0000
56.7800 0.0000
56.7900 0.0000
56.8000 0.0000
56.8100 0.0000
56.8200 0.0000
56.8300 0.0000
56.8400 0.0000
56.8500 0.0000
56.8600 0.6553
56.8700 1.0266
56.8800 1.2377
56.8900 0.0000
56.9000 1.0082
56.9100 0.0000
56.9200 0.2790
56.9300 0.7841
56.9400 0.0000
56.9500 0.0000
56.9600 0.0000
56.9700 1.0204
56.9800 0.0000
56.9900 0.9218
57.0000 2.1176
57.0100 2.0424
57.0200 0.0000
57.0300 0.3124
57.0400 0.7262
57.0500 0.0000
57.0600 0.0000
57.0700 0.9849
57.0800 0.9791
57.0900 1.0070
57.1000 0.9748
57.1100 0.0000
57.1200 0.0000
57.1300 0.2447
57.1400 1.7529
57.1500 1.5958
57.1600 0.0000
57.1700 3.1916
57.1800 1.4186
57.1900 0.5608
57.2000 0.9505
57.2100 3.9536
57.2200 0.0869
57.2300 0.8347
57.2400 0.0000
57.2500 0.0000
57.2600 0.0000
57.2700 0.0000
57.2800 0.0000
57.2900 0.0000
57.3000 0.8465
57.3100 1.0873
57.3200 0.0558
57.3300 0.0000
57.3400 0.9945
57.3500 0.0000
57.3600 0.0000
57.3700 0.0000
57.3800 0.0000
57.3900 0.0000
57.4000 0.0000
57.4100 0.0000
57.4200 0.0000
57.4300 0.9772
57.4400 0.0000
57.4500 0.0000
57.4600 0.0000
57.4700 0.4418
57.4800 0.5311
57.4900 1.0882
57.5000 1.7202
57.5100 0.2618
57.5200 0.0000
57.5300 0.9630
57.5400 0.9589
57.5500 1.2254
57.5600 0.7239
57.5700 0.0000
57.5800 0.0000
57.5900 0.9640
57.6000 0.0000
57.6100 0.0000
57.6200 0.0000
57.6300 0.0000
57.6400 1.9639
57.6500 0.2848
57.6600 1.5739
57.6700 0.0000
57.6800 0.0000
57.6900 0.0000
57.7000 0.9743
57.7100 0.0000
57.7200 0.0000
57.7300 0.0000
57.7400 0.0000
57.7500 1.0259
57.7600 0.1954
57.7700 1.8045
57.7800 0.0000
57.7900 1.0154
57.8000 0.0000
57.8100 0.6537
57.8200 0.3315
57.8300 0.0000
57.8400 0.0000
57.8500 0.9848
57.8600 1.2107
57.8700 1.8269
57.8800 0.0000
57.8900 0.0000
57.9000 0.0000
57.9100 2.9452
57.9200 0.6459
57.9300 0.2744
57.9400 0.8882
57.9500 1.0900
57.9600 0.0149
57.9700 0.0000
57.9800 1.9213
57.9900 0.0000
58.0000 1.9572
58.0100 2.5753
58.0200 0.4593
58.0300 0.0000
58.0400 0.0000
58.0500 0.0000
58.0600 0.0000
58.0700 1.2196
58.0800 1.7752
58.0900 0.6595
58.1000 1.4916
58.1100 0.0000
58.1200 0.0000
58.1300 0.0000
58.1400 0.0000
58.1500 0.0000
58.1600 0.0000
58.1700 1.0533
58.1800 2.1182
58.1900 1.1771
58.2000 0.7995
58.2100 0.9072
58.2200 1.1579
58.2300 1.9431
58.2400 0.0000
58.2500 1.9717
58.2600 0.0000
58.2700 0.9507
58.2800 0.9812
58.2900 1.0013
58.3000 0.0000
58.3100 0.0000
58.3200 0.4724
58.3300 0.5166
58.3400 0.7551
58.3500 1.1236
58.3600 0.2344
58.3700 0.9676
58.3800 1.0288
58.3900 0.0000
58.4000 0.0000
58.4100 0.6283
58.4200 1.2920
58.4300 0.5075
58.4400 0.4760
58.4500 1.6571
58.4600 1.1058
58.4700 0.2042
58.4800 1.9577
58.4900 0.9707
58.5000 0.0000
58.5100 1.0066
58.5200 0.3697
58.5300 0.6416
58.5400 0.0000
58.5500 0.0000
58.5600 1.0057
58.5700 0.0000
58.5800 0.9048
58.5900 0.0661
58.6000 1.0768
58.6100 2.2054
58.6200 1.8169
58.6300 0.9886
58.6400 0.9811
58.6500 0.9879
58.6600 0.9808
58.6700 1.8248
58.6800 0.2139
58.6900 0.0000
58.7000 0.0000
58.7100 0.0000
58.7200 0.9789
58.7300 1.9828
58.7400 0.4207
58.7500 0.5306
58.7600 0.0000
58.7700 0.0000
58.7800 0.0000
58.7900 0.0000
58.8000 0.0000
58.8100 0.0000
58.8200 1.1970
58.8300 1.7346
58.8400 0.3833
58.8500 2.6064
58.8600 2.1874
58.8700 1.8313
58.8800 0.0000
58.8900 0.0000
58.9000 0.0000
58.9100 0.0000
58.9200 0.0000
58.9300 0.0000
58.9400 0.0000
58.9500 0.9492
58.9600 1.9580
58.9700 0.9187
58.9800 0.0000
58.9900 0.9891
59.0000 0.0000
59.0100 0.0000
59.0200 0.0000
59.0300 0.0000
59.0400 0.0000
59.0500 0.0000
59.0600 0.0000
59.0700 1.0088
59.0800 0.0000
59.0900 1.5144
59.1000 0.5156
59.1100 0.0000
59.1200 0.0000
59.1300 0.0000
59.1400 0.0000
59.1500 0.3177
59.1600 1.0994
59.1700 0.5832
59.1800 0.5801
59.1900 2.3420
59.2000 1.0709
59.2100 1.7313
59.2200 0.2389
59.2300 1.6791
59.2400 0.3355
59.2500 2.7254
59.2600 0.3368
59.2700 0.6235
59.2800 0.5108
59.2900 0.4360
59.3000 0.7307
59.3100 0.2726
59.3200 0.0000
59.3300 0.0000
59.3400 0.0000
59.3500 0.0000
59.3600 0.0000
59.3700 0.3770
59.3800 0.5920
59.3900 0.0000
59.4000 0.0000
59.4100 0.0000
59.4200 0.0000
59.4300 0.8905
59.4400 0.0901
59.4500 0.9257
59.4600 1.0095
59.4700 0.0000
59.4800 0.0000
59.4900 0.6003
59.5000 1.5718
59.5100 2.0053
59.5200 0.9608
59.5300 0.0000
59.5400 0.0000
59.5500 2.0236
59.5600 0.1804
59.5700 0.8080
59.5800 1.9020
59.5900 2.0250
59.6000 0.0000
59.6100 0.0000
59.6200 0.0000
59.6300 0.0000
59.6400 0.9224
59.6500 1.0567
59.6600 2.2359
59.6700 1.1177
59.6800 0.7499
59.6900 0.0000
59.7000 1.0166
59.7100 1.0002
59.7200 1.0089
59.7300 0.7450
59.7400 0.2013
59.7500 0.0000
59.7600 0.0000
59.7700 0.0000
59.7800 0.0000
59.7900 0.0000
59.8000 0.9202
59.8100 1.2156
59.8200 1.0255
59.8300 0.0000
59.8400 0.0000
59.8500 0.9276
59.8600 2.1313
59.8700 0.0000
59.8800 0.0000
59.8900 0.0000
59.9000 0.9690
59.9100 0.9859
59.9200 0.0000
59.9300 0.0000
59.9400 0.7867
59.9500 0.2356
59.9600 0.0000
59.9700 2.9946
59.9800 0.9946
59.9900 0.0000
60.0000 1.0091
60.0100 0.0000
60.0200 0.0000
60.0300 0.0000
60.0400 0.6728
60.0500 0.2702
60.0600 0.0000
60.0700 0.0000
60.0800 0.9700
60.0900 1.1692
60.1000 1.3784
60.1100 1.4380
60.1200 0.4619
60.1300 1.5146
60.1400 2.6335
60.1500 1.0607
60.1600 5.6015
60.1700 1.8045
60.1800 1.0140
60.1900 0.0000
60.2000 2.0451
60.2100 0.0000
60.2200 0.0000
60.2300 0.9888
60.2400 0.0000
60.2500 0.0000
60.2600 0.7586
60.2700 0.2015
60.2800 0.0000
60.2900 1.0601
60.3000 0.9037
60.3100 0.0000
60.3200 0.9811
60.3300 1.4037
60.3400 0.5610
60.3500 0.0000
60.3600 0.0000
60.3700 1.0348
60.3800 0.9236
60.3900 0.0772
60.4000 0.9942
60.4100 0.0000
60.4200 0.2964
60.4300 3.7138
60.4400 1.9587
60.4500 1.0025
60.4600 0.9670
60.4700 1.9532
60.4800 0.0000
60.4900 1.9710
60.5000 0.1330
60.5100 1.9069
60.5200 0.7642
60.5300 2.7141
60.5400 1.5353
60.5500 2.1165
60.5600 0.9694
60.5700 0.0000
60.5800 0.9095
60.5900 0.2123
60.6000 0.0000
60.6100 0.0000
60.6200 0.0000
60.6300 0.0000
60.6400 0.7089
60.6500 1.1708
60.6600 0.0000
60.6700 0.6754
60.6800 0.3474
60.6900 0.8429
60.7000 1.0902
60.7100 0.0563
60.7200 0.0000
60.7300 0.0000
60.7400 0.0000
60.7500 0.4063
60.7600 0.5715
60.7700 0.0000
60.7800 0.6768
60.7900 0.2919
60.8000 0.8737
60.8100 0.1108
60.8200 0.9657
60.8300 1.0014
60.8400 0.0000
60.8500 0.3514
60.8600 1.6569
60.8700 0.0000
60.8800 0.0000
60.8900 1.7303
60.9000 2.1282
60.9100 1.1084
60.9200 0.0000
60.9300 0.1130
60.9400 0.8735
60.9500 0.0000
60.9600 0.0000
60.9700 0.0000
60.9800 0.0000
60.9900 0.9770
61.0000 0.8062
61.0100 0.2336
61.0200 1.0030
61.0300 0.0000
61.0400 0.9848
61.0500 1.2365
61.0600 0.7314
61.0700 0.9842
61.0800 1.9905
61.0900 0.0000
61.1000 3.1299
61.1100 0.0000
61.1200 2.0357
61.1300 0.0025
61.1400 0.9954
61.1500 0.5711
61.1600 3.4771
61.1700 0.3744
61.1800 0.6108
61.1900 0.5823
61.2000 0.4414
61.2100 0.0000
61.2200 0.0000
61.2300 0.0000
61.2400 0.0000
61.2500 1.1276
61.2600 1.0973
61.2700 0.7903
61.2800 0.0000
61.2900 2.0499
61.3000 0.0000
61.3100 0.9623
61.3200 0.4093
61.3300 1.4581
61.3400 0.1796
61.3500 0.9799
61.3600 1.1735
61.3700 0.8411
61.3800 1.0678
61.3900 0.4573
61.4000 1.0959
61.4100 3.0151
61.4200 0.3380
61.4300 0.0000
61.4400 0.0000
61.4500 0.0484
61.4600 2.0474
61.4700 0.0000
61.4800 0.0000
61.4900 0.0000
61.5000 0.0000
61.5100 0.6370
61.5200 0.4437
61.5300 0.0000
61.5400 0.0000
61.5500 0.0000
61.5600 0.0000
61.5700 0.0000
61.5800 1.0043
61.5900 1.0201
61.6000 0.0000
61.6100 0.0000
61.6200 0.6618
61.6300 0.9562
61.6400 0.3309
61.6500 0.0000
61.6600 0.0000
61.6700 0.0000
61.6800 0.9930
61.6900 0.0000
61.7000 0.0000
61.7100 0.9537
61.7200 0.0000
61.7300 0.0000
61.7400 0.0000
61.7500 0.0000
61.7600 0.0000
61.7700 2.0274
61.7800 0.0000
61.7900 0.0000
61.8000 0.0000
61.8100 0.9675
61.8200 0.0000
61.8300 0.0000
61.8400 0.0000
61.8500 0.0000
61.8600 0.8805
61.8700 0.1052
61.8800 0.0000
61.8900 0.0000
61.9000 0.0000
61.9100 0.0000
61.9200 0.0000
61.9300 0.0000
61.9400 0.0000
61.9500 0.7165
61.9600 0.2481
61.9700 0.0000
61.9800 0.0000
61.9900 1.1141
62.0000 1.8438
62.0100 0.0000
62.0200 1.3567
62.0300 0.6017
62.0400 0.9892
62.0500 0.9776
62.0600 1.7830
62.0700 3.1522
62.0800 0.1291
62.0900 2.9730
62.1000 0.1612
62.1100 2.8145
62.1200 1.3208
62.1300 1.0279
62.1400 0.5396
62.1500 1.7492
62.1600 1.5019
62.1700 0.0000
62.1800 0.0000
62.1900 0.0000
62.2000 0.0000
62.2100 1.0247
62.2200 1.2467
62.2300 1.1092
62.2400 0.6329
62.2500 0.9246
62.2600 0.0000
62.2700 0.0000
62.2800 0.8324
62.2900 1.0891
62.3000 0.0445
62.3100 0.9108
62.3200 1.2538
62.3300 0.7473
62.3400 0.0000
62.3500 0.0000
62.3600 1.5419
62.3700 0.3672
62.3800 0.0000
62.3900 0.0000
62.4000 1.0169
62.4100 1.0413
62.4200 0.9504
62.4300 0.0406
62.4400 0.1078
62.4500 1.0751
62.4600 1.0653
62.4700 0.6074
62.4800 0.3252
62.4900 0.0000
62.5000 0.0000
62.5100 1.0332
62.5200 0.0000
62.5300 0.0000
62.5400 0.9986
62.5500 1.0818
62.5600 0.0000
62.5700 1.1256
62.5800 0.0000
62.5900 0.0000
62.6000 0.0000
62.6100 0.0000
62.6200 0.9906
62.6300 0.0000
62.6400 0.2489
62.6500 0.7233
62.6600 0.0000
62.6700 0.9729
62.6800 0.9507
62.6900 0.0000
62.7000 0.0000
62.7100 0.0000
62.7200 0.0000
62.7300 0.1157
62.7400 1.9192
62.7500 0.0000
62.7600 0.3755
62.7700 0.5904
62.7800 0.0000
62.7900 0.9205
62.8000 0.0000
62.8100 1.8965
62.8200 1.1420
62.8300 2.1186
62.8400 0.9408
62.8500 0.2335
62.8600 0.7464
62.8700 0.0000
62.8800 0.0000
62.8900 0.0000
62.9000 0.0000
62.9100 0.9978
62.9200 0.0000
62.9300 2.0315
62.9400 0.0000
62.9500 0.0000
62.9600 0.0000
62.9700 0.0000
62.9800 0.9722
62.9900 1.1166
63.0000 0.0000
63.0100 0.0000
63.0200 0.8282
63.0300 0.1542
63.0400 3.0039
63.0500 0.9219
63.0600 0.0000
63.0700 0.0000
63.0800 0.4714
63.0900 0.6801
63.1000 0.0000
63.1100 0.0000
63.1200 0.8215
63.1300 0.2224
63.1400 0.0000
63.1500 0.0000
63.1600 1.0108
63.1700 0.0000
63.1800 0.0000
63.1900 0.0000
63.2000 0.0000
63.2100 0.0000
63.2200 0.7043
63.2300 0.2593
63.2400 1.0104
63.2500 0.0000
63.2600 0.0000
63.2700 0.0000
63.2800 1.0903
63.2900 0.0000
63.3000 0.0000
63.3100 1.9676
63.3200 0.6569
63.3300 0.3165
63.3400 0.0000
63.3500 2.8861
63.3600 0.0410
63.3700 0.9655
63.3800 0.0000
63.3900 0.3352
63.4000 1.6856
63.4100 0.5594
63.4200 0.5074
63.4300 0.0000
63.4400 0.0000
63.4500 0.8430
63.4600 0.0916
63.4700 0.9672
63.4800 0.0000
63.4900 0.2658
63.5000 0.6850
63.5100 0.0000
63.5200 0.6188
63.5300 1.1387
63.5400 0.3433
63.5500 0.0000
63.5600 1.8236
63.5700 1.1094
63.5800 0.0000
63.5900 0.0000
63.6000 0.2994
63.6100 0.6426
63.6200 0.0000
63.6300 0.0000
63.6400 0.9711
63.6500 0.0000
63.6600 0.9866
63.6700 0.9986
63.6800 2.9548
63.6900 0.1769
63.7000 0.8796
63.7100 0.0000
63.7200 1.4124
63.7300 0.5356
63.7400 1.0257
63.7500 0.0000
63.7600 2.5778
63.7700 0.5348
63.7800 0.0164
63.7900 0.9511
63.8000 1.0081
63.8100 0.0000
63.8200 0.0000
63.8300 1.6752
63.8400 1.5164
63.8500 0.0000
63.8600 0.0000
63.8700 0.0000
63.8800 1.0250
63.8900 0.0000
63.9000 0.0000
63.9100 1.2111
63.9200 0.7624
63.9300 0.0000
63.9400 1.0017
63.9500 0.0000
63.9600 0.7193
63.9700 1.0539
63.9800 1.2045
63.9900 1.0173
64.0000 1.1590
64.0100 0.9099
64.0200 0.0000
64.0300 1.9449
64.0400 0.0000
64.0500 2.0141
64.0600 0.0000
64.0700 2.9787
64.0800 0.0000
64.0900 4.0160
64.1000 0.0000
64.1100 0.0000
64.1200 0.0000
64.1300 0.3171
64.1400 1.7152
64.1500 0.0000
64.1600 0.0000
64.1700 0.9539
64.1800 0.0000
64.1900 0.0000
64.2000 0.0000
64.2100 1.0239
64.2200 0.1737
64.2300 0.8463
64.2400 0.0000
64.2500 0.0000
64.2600 0.0000
64.2700 0.0000
64.2800 0.0000
64.2900 0.8277
64.3000 0.1682
64.3100 1.0346
64.3200 0.0000
64.3300 0.0000
64.3400 0.0000
64.3500 0.0000
64.3600 0.9890
64.3700 1.0731
64.3800 0.0000
64.3900 1.7613
64.4000 1.2157
64.4100 1.0001
64.4200 0.0000
64.4300 1.0311
64.4400 1.0398
64.4500 0.0000
64.4600 0.0000
64.4700 2.1178
64.4800 1.2312
64.4900 4.4745
64.5000 0.2625
64.5100 0.9531
64.5200 1.9494
64.5300 1.0960
64.5400 0.7568
64.5500 4.5880
64.5600 3.0187
64.5700 1.8701
64.5800 1.9871
64.5900 0.0000
64.6000 0.7802
64.6100 0.2500
64.6200 1.9815
64.6300 0.0000
64.6400 0.0000
64.6500 0.2122
64.6600 1.7596
64.6700 0.0000
64.6800 2.0341
64.6900 0.0000
64.7000 0.0000
64.7100 0.0000
64.7200 1.8249
64.7300 0.1088
64.7400 0.9335
64.7500 0.0000
64.7600 0.0000
64.7700 0.0000
64.7800 0.0000
64.7900 0.0000
64.8000 0.0000
64.8100 0.3144
64.8200 0.0000
64.8300 0.6288
64.8400 0.0000
64.8500 0.1168
64.8600 1.8494
64.8700 0.0000
64.8800 0.0000
64.8900 0.0000
64.9000 0.0000
64.9100 0.0000
64.9200 0.0000
64.9300 0.0000
64.9400 1.8715
64.9500 3.0819
64.9600 0.0000
64.9700 0.0000
64.9800 0.9612
64.9900 0.0000
65.0000 0.0000
65.0100 0.0000
65.0200 0.0000
65.0300 0.0000
65.0400 0.0000
65.0500 0.9514
65.0600 2.1292
65.0700 1.0641
65.0800 0.7695
65.0900 0.0000
65.1000 0.0000
65.1100 0.5869
65.1200 1.1293
65.1300 1.0812
65.1400 0.2320
65.1500 0.0000
65.1600 0.0000
65.1700 0.9363
65.1800 0.0000
65.1900 0.3157
65.2000 0.6510
65.2100 1.4762
65.2200 3.7206
65.2300 0.9678
65.2400 1.8495
65.2500 1.9404
65.2600 1.1806
65.2700 1.5321
65.2800 2.1978
65.2900 1.3717
65.3000 0.3418
65.3100 2.0988
65.3200 1.5827
65.3300 2.3641
65.3400 1.4883
65.3500 0.2612
65.3600 2.6938
65.3700 1.1693
65.3800 2.9421
65.3900 0.9007
65.4000 1.3141
65.4100 1.0966
65.4200 1.1094
65.4300 0.5068
65.4400 0.7117
65.4500 0.3251
65.4600 2.9004
65.4700 0.1264
65.4800 2.0254
65.4900 2.0287
65.5000 0.8112
65.5100 2.4662
65.5200 2.0411
65.5300 0.5503
65.5400 0.6079
65.5500 0.3565
65.5600 2.5447
65.5700 1.3411
65.5800 1.0776
65.5900 2.1761
65.6000 1.9998
65.6100 1.4292
65.6200 2.8592
65.6300 0.6308
65.6400 0.9600
65.6500 1.6456
65.6600 1.3395
65.6700 1.8763
65.6800 1.1020
65.6900 2.0684
65.7000 0.9013
65.7100 0.0000
65.7200 1.5968
65.7300 3.6487
65.7400 3.0940
65.7500 1.4561
65.7600 1.4286
65.7700 0.5919
65.7800 2.6744
65.7900 0.1990
65.8000 0.0000
65.8100 1.0947
65.8200 2.9364
65.8300 0.7383
65.8400 1.2690
65.8500 0.0000
65.8600 0.9352
65.8700 0.0000
65.8800 0.0000
65.8900 2.8990
65.9000 0.1913
65.9100 2.0067
65.9200 0.0000
65.9300 0.0000
65.9400 1.4187
65.9500 0.6424
65.9600 0.5636
65.9700 0.3838
65.9800 0.0000
65.9900 0.8711
66.0000 0.1209
66.0100 0.0000
66.0200 0.0000
66.0300 0.0000
66.0400 0.0000
66.0500 0.0000
66.0600 0.9596
66.0700 1.8534
66.0800 2.1484
66.0900 0.8278
66.1000 1.1799
66.1100 0.0110
66.1200 1.1079
66.1300 0.9129
66.1400 0.2893
66.1500 1.1374
66.1600 1.2054
66.1700 0.5443
66.1800 0.0000
66.1900 0.0000
66.2000 0.8486
66.2100 0.1377
66.2200 1.0837
66.2300 0.0000
66.2400 0.9723
66.2500 0.0000
66.2600 0.0000
66.2700 0.0000
66.2800 0.6224
66.2900 1.0867
66.3000 1.2327
66.3100 0.0000
66.3200 0.0000
66.3300 2.0781
66.3400 2.9854
66.3500 0.7805
66.3600 0.9429
66.3700 0.0000
66.3800 0.0000
66.3900 0.9449
66.4000 0.0000
66.4100 2.0432
66.4200 2.8909
66.4300 2.0151
66.4400 3.0682
66.4500 0.0000
66.4600 0.0000
66.4700 0.0000
66.4800 0.9820
66.4900 0.9846
66.5000 1.3779
66.5100 0.6126
66.5200 0.0000
66.5300 0.9984
66.5400 0.1677
66.5500 1.8999
66.5600 0.2527
66.5700 0.7244
66.5800 0.0000
66.5900 0.5684
66.6000 0.4807
66.6100 0.0000
66.6200 0.0000
66.6300 0.0000
66.6400 0.9495
66.6500 0.0172
66.6600 0.2899
66.6700 0.6646
66.6800 2.7805
66.6900 1.0127
66.7000 0.1724
66.7100 0.0000
66.7200 0.0000
66.7300 0.8470
66.7400 1.2239
66.7500 1.0378
66.7600 0.0000
66.7700 0.0000
66.7800 0.0000
66.7900 0.0000
66.8000 0.9879
66.8100 0.9550
66.8200 0.0000
66.8300 0.0000
66.8400 0.0000
66.8500 1.0057
66.8600 0.0000
66.8700 0.0000
66.8800 3.0392
66.8900 1.0303
66.9000 0.0000
66.9100 0.0000
66.9200 0.0000
66.9300 0.0000
66.9400 0.0000
66.9500 0.0000
66.9600 0.0000
66.9700 0.0000
66.9800 0.9646
66.9900 0.6494
67.0000 1.8212
67.0100 2.1153
67.0200 0.4874
67.0300 0.0000
67.0400 0.7708
67.0500 0.2055
67.0600 0.0000
67.0700 0.0000
67.0800 0.0000
67.0900 0.0000
67.1000 0.9963
67.1100 0.4677
67.1200 1.5566
67.1300 0.6498
67.1400 1.1270
67.1500 2.1226
67.1600 1.1467
67.1700 0.9683
67.1800 0.0000
67.1900 0.4040
67.2000 1.8497
67.2100 1.6435
67.2200 0.0000
67.2300 0.0000
67.2400 0.0000
67.2500 1.7059
67.2600 1.0632
67.2700 0.1305
67.2800 0.9765
67.2900 0.9690
67.3000 0.0000
67.3100 0.3251
67.3200 0.6363
67.3300 1.0894
67.3400 1.6707
67.3500 0.3934
67.3600 0.0000
67.3700 0.0000
67.3800 0.0000
67.3900 0.0000
67.4000 0.1834
67.4100 0.7935
67.4200 0.0000
67.4300 0.0000
67.4400 0.0000
67.4500 0.0000
67.4600 0.9844
67.4700 0.0000
67.4800 1.0806
67.4900 0.0000
67.5000 0.1343
67.5100 1.9109
67.5200 0.0000
67.5300 3.0532
67.5400 0.5214
67.5500 4.5035
67.5600 0.0000
67.5700 0.0000
67.5800 0.9623
67.5900 1.0609
67.6000 4.0862
67.6100 1.8477
67.6200 0.0000
67.6300 0.0000
67.6400 0.0000
67.6500 0.0000
67.6600 0.0000
67.6700 0.7017
67.6800 2.0622
67.6900 0.1709
67.7000 0.0000
67.7100 1.0472
67.7200 0.0000
67.7300 0.3387
67.7400 0.7802
67.7500 1.4301
67.7600 1.0950
67.7700 0.4242
67.7800 0.0000
67.7900 0.0000
67.8000 0.0000
67.8100 0.0000
67.8200 0.0000
67.8300 0.0000
67.8400 0.0000
67.8500 0.0000
67.8600 1.0371
67.8700 0.6084
67.8800 0.3662
67.8900 0.8025
67.9000 0.1845
67.9100 0.0000
67.9200 1.0579
67.9300 1.8827
67.9400 0.0000
67.9500 1.3742
67.9600 1.6017
67.9700 1.0154
67.9800 0.0000
67.9900 0.0000
68.0000 0.8244
68.0100 0.1439
68.0200 0.0385
68.0300 0.9190
68.0400 0.2260
68.0500 0.7611
68.0600 0.0000
68.0700 0.5259
68.0800 0.5009
68.0900 0.0000
68.1000 0.9293
68.1100 0.9716
68.1200 1.0175
68.1300 0.0000
68.1400 0.1636
68.1500 0.7824
68.1600 0.0000
68.1700 0.0000
68.1800 0.0000
68.1900 0.0000
68.2000 0.0000
68.2100 2.6653
68.2200 0.3333
68.2300 0.0455
68.2400 1.9797
68.2500 0.2073
68.2600 0.7741
68.2700 0.9739
68.2800 0.0000
68.2900 0.0000
68.3000 0.9834
68.3100 1.6363
68.3200 1.3538
68.3300 0.1300
68.3400 0.0616
68.3500 0.9517
68.3600 0.0000
68.3700 0.9302
68.3800 0.0000
68.3900 1.0547
68.4000 0.6523
68.4100 1.3796
68.4200 1.9910
68.4300 1.9802
68.4400 0.0047
68.4500 1.9550
68.4600 0.0000
68.4700 1.2456
68.4800 0.6941
68.4900 0.0000
68.5000 0.0000
68.5100 0.9968
68.5200 1.0049
68.5300 0.0000
68.5400 2.9183
68.5500 0.1029
68.5600 1.0950
68.5700 0.8606
68.5800 0.0000
68.5900 0.4033
68.6000 1.5665
68.6100 0.9519
68.6200 0.0000
68.6300 0.0000
68.6400 0.0000
68.6500 1.0029
68.6600 1.0297
68.6700 0.1800
68.6800 0.8438
68.6900 0.0000
68.7000 0.0000
68.7100 0.5539
68.7200 1.4012
68.7300 0.0000
68.7400 1.0177
68.7500 0.0000
68.7600 0.0000
68.7700 0.0000
68.7800 0.0000
68.7900 0.0000
68.8000 0.3935
68.8100 1.5726
68.8200 1.5277
68.8300 1.3829
68.8400 2.9734
68.8500 1.1915
68.8600 2.0297
68.8700 2.0744
68.8800 0.0000
68.8900 0.0000
68.9000 1.0543
68.9100 1.9851
68.9200 1.4947
68.9300 0.4688
68.9400 0.0000
68.9500 2.7442
68.9600 0.3814
68.9700 1.0230
68.9800 0.9877
68.9900 1.0911
69.0000 0.0000
69.0100 0.0000
69.0200 0.0000
69.0300 0.0000
69.0400 1.7917
69.0500 1.8225
69.0600 1.2924
69.0700 0.1402
69.0800 0.0000
69.0900 0.0000
69.1000 0.0000
69.1100 0.0000
69.1200 0.9892
69.1300 0.0000
69.1400 0.0000
69.1500 0.0000
69.1600 1.7586
69.1700 1.1015
69.1800 1.0960
69.1900 1.9694
69.2000 0.9680
69.2100 0.2657
69.2200 1.7265
69.2300 0.9703
69.2400 0.5419
69.2500 1.4047
69.2600 0.7359
69.2700 1.2745
69.2800 0.9804
69.2900 1.0091
69.3000 0.9928
69.3100 0.0000
69.3200 0.0000
69.3300 0.4033
69.3400 1.0600
69.3500 1.6299
69.3600 1.8017
69.3700 0.0000
69.3800 0.0000
69.3900 0.0000
69.4000 0.1314
69.4100 1.8414
69.4200 0.0000
69.4300 1.0568
69.4400 0.0000
69.4500 0.0000
69.4600 0.9839
69.4700 0.9790
69.4800 0.8401
69.4900 0.1822
69.5000 1.0184
69.5100 0.9069
69.5200 2.0098
69.5300 0.0000
69.5400 0.0000
69.5500 0.0000
69.5600 1.5390
69.5700 0.4061
69.5800 2.5425
69.5900 0.4692
69.6000 2.8734
69.6100 1.1490
69.6200 2.3059
69.6300 2.8097
69.6400 1.3631
69.6500 1.2827
69.6600 3.0845
69.6700 5.0922
69.6800 1.4879
69.6900 1.2774
69.7000 1.8167
69.7100 1.1662
69.7200 1.0368
69.7300 0.9514
69.7400 1.5548
69.7500 1.3112
69.7600 1.0770
69.7700 0.0000
69.7800 0.6589
69.7900 0.3493
69.8000 0.0000
69.8100 0.8893
69.8200 0.0600
69.8300 0.0000
69.8400 1.9767
69.8500 1.0149
69.8600 0.9509
69.8700 0.0000
69.8800 0.0000
69.8900 4.0366
69.9000 0.8992
69.9100 0.9468
69.9200 0.1282
69.9300 0.9925
69.9400 0.0000
69.9500 0.0000
69.9600 1.6899
69.9700 2.3505
69.9800 1.1021
69.9900 2.9078
70.0000 1.0550
70.0100 0.8989
70.0200 1.9641
70.0300 0.1691
70.0400 2.0646
70.0500 1.1723
70.0600 1.0192
70.0700 0.6269
70.0800 1.5564
70.0900 0.5163
70.1000 0.0000
70.1100 0.9751
70.1200 0.0000
70.1300 0.6687
70.1400 1.1053
70.1500 2.2195
70.1600 0.0000
70.1700 0.0000
70.1800 0.0000
70.1900 0.5225
70.2000 0.4751
70.2100 0.0000
70.2200 0.0000
70.2300 0.6348
70.2400 0.0000
70.2500 0.3174
70.2600 0.0000
70.2700 0.0000
70.2800 1.3862
70.2900 0.6283
70.3000 0.9604
70.3100 2.0108
70.3200 1.6830
70.3300 4.1385
70.3400 1.0388
70.3500 2.1048
70.3600 1.2381
70.3700 4.7742
70.3800 1.2531
70.3900 2.6969
70.4000 0.9774
70.4100 0.5610
70.4200 1.3768
70.4300 3.7309
70.4400 2.3345
70.4500 1.1196
70.4600 0.0923
70.4700 1.9096
70.4800 0.2663
70.4900 2.2126
70.5000 0.6382
70.5100 0.0000
70.5200 0.0000
70.5300 0.9836
70.5400 0.0000
70.5500 0.0000
70.5600 0.0160
70.5700 0.9644
70.5800 0.2036
70.5900 0.7889
70.6000 1.0001
70.6100 0.0000
70.6200 0.1344
70.6300 0.0949
70.6400 1.7995
70.6500 1.0907
70.6600 0.1316
70.6700 0.0607
70.6800 2.0369
70.6900 0.2556
70.7000 0.7944
70.7100 0.0000
70.7200 0.9853
70.7300 0.0000
70.7400 0.0000
70.7500 0.0000
70.7600 0.9356
70.7700 1.0119
70.7800 0.0014
70.7900 0.1877
70.8000 0.8136
70.8100 2.3470
70.8200 0.6254
70.8300 0.0000
70.8400 0.0000
70.8500 0.0000
70.8600 0.0000
70.8700 0.9013
70.8800 0.0549
70.8900 0.0000
70.9000 0.0000
70.9100 0.9864
70.9200 0.9853
70.9300 0.0000
70.9400 0.0000
70.9500 1.0086
70.9600 0.9471
70.9700 0.0000
70.9800 0.0000
70.9900 0.0722
71.0000 0.8868
71.0100 0.0000
71.0200 0.0000
71.0300 0.0000
71.0400 1.0833
71.0500 1.5330
71.0600 0.3557
71.0700 0.0000
71.0800 0.0000
71.0900 0.9671
71.1000 2.0289
71.1100 0.0000
71.1200 0.9968
71.1300 0.3901
71.1400 0.5929
71.1500 0.0000
71.1600 0.0000
71.1700 0.0000
71.1800 0.0000
71.1900 2.8551
71.2000 0.0718
71.2100 0.0000
71.2200 0.0000
71.2300 0.0000
71.2400 0.0000
71.2500 0.0000
71.2600 0.0000
71.2700 0.6944
71.2800 0.2723
71.2900 0.0000
71.3000 0.0000
71.3100 0.0000
71.3200 0.5270
71.3300 2.8364
71.3400 1.6182
71.3500 0.0000
71.3600 0.0000
71.3700 0.0000
71.3800 0.0000
71.3900 0.0000
71.4000 0.0000
71.4100 0.9206
71.4200 0.0000
71.4300 1.2745
71.4400 0.8081
71.4500 0.4105
71.4600 0.5728
71.4700 0.0000
71.4800 0.6909
71.4900 0.2952
71.5000 0.9033
71.5100 1.1250
71.5200 0.9328
71.5300 0.9710
71.5400 0.0000
71.5500 0.9961
71.5600 0.9566
71.5700 0.0000
71.5800 0.4159
71.5900 0.2293
71.6000 1.0872
71.6100 1.1025
71.6200 0.0689
71.6300 0.0000
71.6400 0.0000
71.6500 1.0108
71.6600 0.0000
71.6700 0.0000
71.6800 0.0000
71.6900 1.0494
71.7000 0.0000
71.7100 0.8330
71.7200 0.1226
71.7300 0.9755
71.7400 0.0000
71.7500 0.0000
71.7600 0.6827
71.7700 1.7481
71.7800 0.5699
71.7900 0.0000
71.8000 1.3995
71.8100 0.5409
71.8200 0.8947
71.8300 1.0697
71.8400 2.1095
71.8500 0.1834
71.8600 0.7660
71.8700 0.0000
71.8800 0.0000
71.8900 0.9619
71.9000 0.0000
71.9100 0.0000
71.9200 0.0000
71.9300 0.0000
71.9400 0.0417
71.9500 0.9334
71.9600 1.3416
71.9700 1.4238
71.9800 1.2986
71.9900 0.0000
72.0000 0.9791
72.0100 1.7058
72.0200 0.2938
72.0300 1.0226
72.0400 0.0000
72.0500 1.0992
72.0600 1.9194
72.0700 0.9970
72.0800 0.0000
72.0900 0.4513
72.1000 1.1021
72.1100 2.0738
72.1200 0.3401
72.1300 0.0000
72.1400 1.9125
72.1500 0.0678
72.1600 1.0494
72.1700 0.0000
72.1800 0.9628
72.1900 0.0000
72.2000 1.9624
72.2100 0.0000
72.2200 0.0000
72.2300 0.9566
72.2400 0.8758
72.2500 2.1587
72.2600 1.0532
72.2700 0.0000
72.2800 0.0000
72.2900 0.0000
72.3000 0.4445
72.3100 1.0701
72.3200 0.4397
72.3300 1.0217
72.3400 0.0000
72.3500 0.0000
72.3600 0.0071
72.3700 0.9674
72.3800 0.2224
72.3900 1.2062
72.4000 2.7046
72.4100 1.0930
72.4200 0.0000
72.4300 0.6563
72.4400 1.1312
72.4500 0.2508
72.4600 0.9368
72.4700 2.0365
72.4800 0.2866
72.4900 1.7595
72.5000 0.0000
72.5100 0.0000
72.5200 0.9898
72.5300 0.0000
72.5400 0.0000
72.5500 0.7968
72.5600 1.0795
72.5700 1.1578
72.5800 1.0004
72.5900 0.0000
72.6000 1.1068
72.6100 0.3696
72.6200 1.5834
72.6300 2.2014
72.6400 0.8764
72.6500 0.9620
72.6600 1.7735
72.6700 1.0258
72.6800 0.0884
72.6900 1.9311
72.7000 0.2162
72.7100 0.7813
72.7200 0.0000
72.7300 0.9410
72.7400 0.9859
72.7500 2.0206
72.7600 0.0000
72.7700 0.0000
72.7800 0.9989
72.7900 1.0188
72.8000 0.0000
72.8100 1.6220
72.8200 2.6507
72.8300 3.0341
72.8400 0.6313
72.8500 0.9737
72.8600 1.0164
72.8700 0.2631
72.8800 4.6961
72.8900 0.3428
72.9000 1.1231
72.9100 1.8081
72.9200 1.0215
72.9300 0.4060
72.9400 0.6409
72.9500 0.0000
72.9600 0.6641
72.9700 0.3256
72.9800 1.8547
72.9900 0.1367
73.0000 0.0481
73.0100 0.9421
73.0200 0.9881
73.0300 0.0000
73.0400 0.9802
73.0500 1.4946
73.0600 0.4713
73.0700 0.0000
73.0800 0.0000
73.0900 0.0000
73.1000 0.0000
73.1100 1.0025
73.1200 0.1819
73.1300 2.8518
73.1400 0.0000
73.1500 1.5091
73.1600 0.5779
73.1700 0.0000
73.1800 0.0000
73.1900 0.9093
73.2000 1.1619
73.2100 1.0096
73.2200 0.0000
73.2300 0.0000
73.2400 0.9380
73.2500 0.0000
73.2600 0.0000
73.2700 0.0000
73.2800 0.6696
73.2900 0.2986
73.3000 0.9815
73.3100 0.0000
73.3200 1.0763
73.3300 0.9482
73.3400 3.0241
73.3500 0.0000
73.3600 0.0000
73.3700 0.5248
73.3800 0.4450
73.3900 0.0000
73.4000 1.0005
73.4100 0.0000
73.4200 0.0000
73.4300 0.0000
73.4400 0.2661
73.4500 1.0519
73.4600 1.2418
73.4700 0.3957
73.4800 2.1753
73.4900 0.8663
73.5000 0.9997
73.5100 0.0000
73.5200 0.0000
73.5300 0.0484
73.5400 0.8928
73.5500 0.2407
73.5600 1.7871
73.5700 0.0000
73.5800 0.0000
73.5900 0.0000
73.6000 0.0000
73.6100 0.9958
73.6200 0.0000
73.6300 1.0423
73.6400 1.0146
73.6500 0.1775
73.6600 0.7861
73.6700 2.0113
73.6800 0.5174
73.6900 5.0356
73.7000 0.4362
73.7100 1.7381
73.7200 1.0942
73.7300 4.9398
73.7400 0.1205
73.7500 0.0000
73.7600 0.0000
73.7700 0.0000
73.7800 0.0000
73.7900 0.9715
73.8000 0.5719
73.8100 1.0611
73.8200 0.2991
73.8300 0.8316
73.8400 0.1099
73.8500 1.9774
73.8600 0.0000
73.8700 0.0000
73.8800 0.0000
73.8900 0.0000
73.9000 0.0000
73.9100 1.0078
73.9200 0.0000
73.9300 1.0097
73.9400 0.0000
73.9500 0.0318
73.9600 1.9510
73.9700 0.9970
73.9800 0.0000
73.9900 0.3808
74.0000 1.6522
74.0100 1.6708
74.0200 0.3964
74.0300 0.0000
74.0400 1.7339
74.0500 2.2503
74.0600 2.0617
74.0700 1.0639
74.0800 3.1302
74.0900 0.8020
74.1000 2.0860
74.1100 1.9602
74.1200 1.9770
74.1300 0.9940
74.1400 1.9983
74.1500 0.0000
74.1600 1.9763
74.1700 0.1921
74.1800 1.8805
74.1900 0.0000
74.2000 0.3652
74.2100 0.6064
74.2200 0.1807
74.2300 0.1393
74.2400 1.3950
74.2500 0.1578
74.2600 0.0000
74.2700 0.9372
74.2800 0.0000
74.2900 0.0000
74.3000 0.0000
74.3100 0.4005
74.3200 0.5664
74.3300 0.0000
74.3400 0.0000
74.3500 1.1306
74.3600 2.6086
74.3700 0.3350
74.3800 2.0157
74.3900 0.1663
74.4000 0.8157
74.4100 0.3643
74.4200 1.5772
74.4300 1.1181
74.4400 0.6390
74.4500 0.3573
74.4600 0.9596
74.4700 0.0000
74.4800 2.1155
74.4900 0.0000
74.5000 0.0000
74.5100 0.2896
74.5200 1.0687
74.5300 0.6082
74.5400 0.0000
74.5500 0.0000
74.5600 0.0000
74.5700 0.0000
74.5800 1.9636
74.5900 1.9651
74.6000 0.0000
74.6100 0.0000
74.6200 0.0000
74.6300 0.9998
74.6400 0.0000
74.6500 0.0000
74.6600 0.0000
74.6700 0.0000
74.6800 1.0041
74.6900 0.0000
74.7000 0.9735
74.7100 0.9648
74.7200 0.0000
74.7300 0.0000
74.7400 0.0000
74.7500 0.5590
74.7600 2.4031
74.7700 0.0000
74.7800 0.9625
74.7900 0.9674
74.8000 0.9836
74.8100 0.9689
74.8200 0.0000
74.8300 0.9606
74.8400 0.0000
74.8500 0.0000
74.8600 0.5575
74.8700 0.3626
74.8800 0.0000
74.8900 0.0000
74.9000 0.0000
74.9100 0.0000
74.9200 0.9923
74.9300 0.0000
74.9400 0.0000
74.9500 0.0000
74.9600 1.5396
74.9700 0.4460
74.9800 0.0000
74.9900 0.0000
75.0000 1.9321
75.0100 1.0714
75.0200 1.0870
75.0300 0.0000
75.0400 0.0000
75.0500 0.0000
75.0600 1.0246
75.0700 0.0000
75.0800 0.6504
75.0900 0.3024
75.1000 0.0000
75.1100 0.9857
75.1200 1.0702
75.1300 0.9337
75.1400 0.2485
75.1500 0.7496
75.1600 0.0000
75.1700 0.0000
75.1800 0.0000
75.1900 0.0000
75.2000 0.8071
75.2100 1.0627
75.2200 1.0790
75.2300 0.0940
75.2400 2.8711
75.2500 0.0000
75.2600 0.9581
75.2700 0.9529
75.2800 0.0000
75.2900 0.0000
75.3000 0.7532
75.3100 2.2431
75.3200 0.0000
75.3300 1.9888
75.3400 0.0000
75.3500 0.0000
75.3600 0.0000
75.3700 0.0000
75.3800 0.7441
75.3900 0.0000
75.4000 0.9384
75.4100 0.0000
75.4200 0.0000
75.4300 0.0000
75.4400 0.0000
75.4500 0.0000
75.4600 0.0000
75.4700 1.0242
75.4800 0.4496
75.4900 2.0086
75.5000 2.0146
75.5100 0.3540
75.5200 1.2182
75.5300 0.0000
75.5400 1.9812
75.5500 1.0856
75.5600 0.8689
75.5700 0.9671
75.5800 1.0166
75.5900 0.0000
75.6000 0.0000
75.6100 1.9212
75.6200 0.0000
75.6300 0.8352
75.6400 0.1201
75.6500 0.0000
75.6600 0.0000
75.6700 0.0000
75.6800 1.0047
75.6900 0.4961
75.7000 1.6167
75.7100 0.0000
75.7200 1.7573
75.7300 1.2847
75.7400 0.0000
75.7500 0.0000
75.7600 0.1001
75.7700 0.8872
75.7800 1.3146
75.7900 1.5273
75.8000 1.2569
75.8100 0.0000
75.8200 2.0374
75.8300 0.0000
75.8400 0.0000
75.8500 0.0000
75.8600 0.0000
75.8700 1.2557
75.8800 0.9092
75.8900 0.0000
75.9000 0.4171
75.9100 1.1411
75.9200 0.5336
75.9300 1.6876
75.9400 1.3332
75.9500 0.0000
75.9600 0.0000
75.9700 1.0505
75.9800 1.0654
75.9900 0.7763
76.0000 0.9558
76.0100 0.0000
76.0200 0.5965
76.0300 1.4625
76.0400 0.0000
76.0500 0.8775
76.0600 0.1686
76.0700 0.0000
76.0800 0.0000
76.0900 0.0000
76.1000 0.0000
76.1100 0.3866
76.1200 0.5674
76.1300 1.6191
76.1400 2.0694
76.1500 0.3058
76.1600 0.0000
76.1700 1.0032
76.1800 0.0707
76.1900 1.0012
76.2000 0.9955
76.2100 0.0000
76.2200 0.4551
76.2300 3.1448
76.2400 0.4567
76.2500 0.7439
76.2600 1.9438
76.2700 0.3625
76.2800 0.0099
76.2900 1.0907
76.3000 1.0791
76.3100 0.8079
76.3200 0.9676
76.3300 1.4060
76.3400 1.0887
76.3500 0.4281
76.3600 1.7524
76.3700 0.2283
76.3800 0.0000
76.3900 1.0254
76.4000 0.1404
76.4100 1.7965
76.4200 0.9760
76.4300 0.0000
76.4400 0.0000
76.4500 0.0000
76.4600 0.0000
76.4700 1.7939
76.4800 2.1079
76.4900 0.0000
76.5000 0.0000
76.5100 0.1892
76.5200 1.1226
76.5300 1.0896
76.5400 1.1402
76.5500 0.5528
76.5600 0.0000
76.5700 1.0136
76.5800 0.0000
76.5900 1.0036
76.6000 0.0000
76.6100 0.0000
76.6200 0.2186
76.6300 1.7345
76.6400 0.0000
76.6500 0.0000
76.6600 0.0000
76.6700 1.0092
76.6800 0.0000
76.6900 2.9874
76.7000 1.1640
76.7100 1.0253
76.7200 0.1648
76.7300 1.0944
76.7400 0.7195
76.7500 1.0429
76.7600 0.9869
76.7700 0.0000
76.7800 0.0000
76.7900 0.0000
76.8000 0.0000
76.8100 0.9533
76.8200 0.0000
76.8300 0.1984
76.8400 0.7858
76.8500 0.0000
76.8600 0.0000
76.8700 1.5241
76.8800 1.0750
76.8900 1.0715
76.9000 2.9767
76.9100 0.4388
76.9200 0.0000
76.9300 0.0000
76.9400 1.0129
76.9500 0.3295
76.9600 0.6561
76.9700 1.0335
76.9800 0.0000
76.9900 0.7206
77.0000 0.2916
77.0100 1.0364
77.0200 1.0436
77.0300 0.0000
77.0400 0.0000
77.0500 0.0000
77.0600 0.0000
77.0700 0.0000
77.0800 0.0000
77.0900 0.9829
77.1000 0.0000
77.1100 0.0000
77.1200 1.8174
77.1300 0.1180
77.1400 0.9427
77.1500 0.9849
77.1600 1.2956
77.1700 0.6522
77.1800 0.1242
77.1900 0.3130
77.2000 1.6335
77.2100 1.6726
77.2200 1.0425
77.2300 1.0867
77.2400 2.0407
77.2500 0.9742
77.2600 0.0000
77.2700 0.0000
77.2800 0.0000
77.2900 0.5197
77.3000 1.4508
77.3100 0.0000
77.3200 0.0000
77.3300 0.0000
77.3400 0.0000
77.3500 0.0000
77.3600 0.9701
77.3700 0.0000
77.3800 0.0000
77.3900 0.0000
77.4000 0.0000
77.4100 0.0000
77.4200 0.9501
77.4300 0.8164
77.4400 2.0570
77.4500 0.0388
77.4600 0.0000
77.4700 0.2516
77.4800 0.7843
77.4900 1.0231
77.5000 0.9424
77.5100 0.0000
77.5200 0.6934
77.5300 1.0684
77.5400 0.1867
77.5500 1.0008
77.5600 0.0000
77.5700 0.9997
77.5800 0.0000
77.5900 0.9372
77.6000 0.0000
77.6100 0.6857
77.6200 0.5293
77.6300 0.0000
77.6400 2.3090
77.6500 0.9204
77.6600 1.0520
77.6700 0.0000
77.6800 0.0000
77.6900 0.2990
77.7000 0.6367
77.7100 1.4848
77.7200 1.0686
77.7300 2.0194
77.7400 2.0495
77.7500 0.2027
77.7600 0.0000
77.7700 1.0537
77.7800 0.8657
77.7900 1.1134
77.8000 0.0000
77.8100 0.0000
77.8200 0.9854
77.8300 1.2438
77.8400 0.6965
77.8500 0.7961
77.8600 1.0887
77.8700 0.9855
77.8800 0.0000
77.8900 0.0000
77.9000 0.0000
77.9100 0.0000
77.9200 0.9773
77.9300 0.9904
77.9400 0.6595
77.9500 1.0954
77.9600 1.2129
77.9700 0.0000
77.9800 0.0000
77.9900 0.0000
78.0000 0.9681
78.0100 1.3741
78.0200 0.6874
78.0300 0.0000
78.0400 0.0000
78.0500 0.0000
78.0600 0.9834
78.0700 0.0000
78.0800 0.0000
78.0900 0.0000
78.1000 0.0000
78.1100 1.0079
78.1200 0.9747
78.1300 1.0165
78.1400 1.3250
78.1500 0.2686
78.1600 0.2347
78.1700 0.0757
78.1800 1.0305
78.1900 0.0000
78.2000 0.9832
78.2100 0.2457
78.2200 0.8319
78.2300 0.4180
78.2400 0.9080
78.2500 0.0000
78.2600 0.6463
78.2700 1.0131
78.2800 0.0000
78.2900 1.9087
78.3000 0.1127
78.3100 0.9519
78.3200 0.2511
78.3300 0.6915
78.3400 0.0000
78.3500 0.0000
78.3600 1.6488
78.3700 1.3567
78.3800 0.0000
78.3900 0.0000
78.4000 0.9598
78.4100 0.9697
78.4200 0.0000
78.4300 0.0000
78.4400 0.0000
78.4500 0.0000
78.4600 0.0000
78.4700 0.0000
78.4800 1.0904
78.4900 0.0000
78.5000 0.0000
78.5100 0.0000
78.5200 1.0453
78.5300 0.0000
78.5400 0.3366
78.5500 0.6446
78.5600 0.5359
78.5700 1.4640
78.5800 0.7898
78.5900 0.3062
78.6000 0.0000
78.6100 0.9855
78.6200 0.9956
78.6300 0.0000
78.6400 0.0000
78.6500 0.0000
78.6600 0.0000
78.6700 0.9290
78.6800 0.0000
78.6900 1.0540
78.7000 0.8216
78.7100 1.1766
78.7200 0.0571
78.7300 0.1415
78.7400 0.8951
78.7500 0.9488
78.7600 0.4368
78.7700 1.1977
78.7800 0.5612
78.7900 0.0000
78.8000 0.0000
78.8100 0.8980
78.8200 1.0875
78.8300 0.0000
78.8400 0.0000
78.8500 0.0000
78.8600 0.9949
78.8700 0.0000
78.8800 0.5521
78.8900 0.4473
78.9000 0.0000
78.9100 0.9962
78.9200 0.0000
78.9300 2.0204
78.9400 0.9735
78.9500 0.0000
78.9600 0.0000
78.9700 0.0000
78.9800 1.4887
78.9900 2.2949
79.0000 1.5345
79.0100 1.0364
79.0200 0.0000
79.0300 1.0048
79.0400 0.9781
79.0500 0.0000
79.0600 0.0000
79.0700 0.0000
79.0800 0.0000
79.0900 1.5228
79.1000 1.4746
79.1100 0.0000
79.1200 1.0150
79.1300 0.0000
79.1400 0.0000
79.1500 2.1660
79.1600 1.0710
79.1700 1.7812
79.1800 0.3772
79.1900 1.6035
79.2000 0.5408
79.2100 0.4029
79.2200 0.0000
79.2300 0.0000
79.2400 0.9173
79.2500 0.0433
79.2600 0.9181
79.2700 0.2349
79.2800 1.7081
79.2900 0.0000
79.3000 0.0000
79.3100 0.0000
79.3200 0.0000
79.3300 0.0000
79.3400 0.0000
79.3500 1.9616
79.3600 0.0109
79.3700 0.0000
79.3800 0.0000
79.3900 0.9655
79.4000 0.0000
79.4100 0.0000
79.4200 0.0000
79.4300 0.0000
79.4400 0.0000
79.4500 0.9710
79.4600 0.9246
79.4700 0.0000
79.4800 0.0000
79.4900 1.6051
79.5000 1.3445
79.5100 0.9410
79.5200 0.9437
79.5300 0.9601
79.5400 0.9961
79.5500 0.0000
79.5600 0.0000
79.5700 0.0000
79.5800 0.0000
79.5900 1.0212
79.6000 0.3344
79.6100 0.6243
79.6200 0.0000
79.6300 1.9815
79.6400 0.0000
79.6500 0.9535
79.6600 0.0000
79.6700 0.0000
79.6800 0.9520
79.6900 0.0000
79.7000 2.0259
79.7100 0.0000
79.7200 0.4817
79.7300 0.5186
79.7400 0.0000
79.7500 0.8570
79.7600 0.2636
79.7700 0.9058
79.7800 1.0184
79.7900 0.0000
79.8000 0.0000
79.8100 1.8624
79.8200 0.0000
79.8300 0.0000
79.8400 0.0000
79.8500 1.0183
79.8600 0.0000
79.8700 0.0000
79.8800 0.0000
79.8900 0.9843
79.9000 0.0000
79.9100 0.0000
79.9200 1.0460
79.9300 2.3005
79.9400 0.5581
79.9500 2.0768
79.9600 0.7375
79.9700 1.2073
79.9800 0.0000
79.9900 1.9512
80.0000 0.9425
80.0100 0.2119
80.0200 0.7558
80.0300 0.0000
80.0400 1.0396
80.0500 1.1773
80.0600 0.7961
80.0700 0.0000
80.0800 2.0356
80.0900 0.0000
80.1000 0.9786
80.1100 0.0000
80.1200 0.5064
80.1300 1.4613
80.1400 1.4261
80.1500 2.1902
80.1600 0.4580
80.1700 0.9637
80.1800 1.0823
80.1900 0.8229
80.2000 2.0350
80.2100 1.0098
80.2200 0.0000
80.2300 0.5697
80.2400 1.3569
80.2500 0.0000
80.2600 0.0000
80.2700 0.6734
80.2800 1.0786
80.2900 1.0823
80.3000 0.1368
80.3100 0.0000
80.3200 0.0000
80.3300 0.9423
80.3400 0.0000
80.3500 0.0000
80.3600 1.5230
80.3700 0.4624
80.3800 0.0000
80.3900 3.6455
80.4000 1.3615
80.4100 0.0000
80.4200 0.0000
80.4300 0.1767
80.4400 1.0585
80.4500 0.9429
80.4600 0.3957
80.4700 1.7653
80.4800 0.5893
80.4900 0.0000
80.5000 0.0000
80.5100 0.0000
80.5200 0.0000
80.5300 0.0000
80.5400 0.0000
80.5500 0.3037
80.5600 0.6564
80.5700 0.0000
80.5800 0.5581
80.5900 0.3728
80.6000 0.0000
80.6100 1.8896
80.6200 0.1184
80.6300 0.0701
80.6400 1.0726
80.6500 1.0800
80.6600 2.0931
80.6700 0.6049
80.6800 0.5289
80.6900 1.0854
80.7000 0.3640
80.7100 0.0000
80.7200 0.9606
80.7300 2.0018
80.7400 0.0000
80.7500 0.0000
80.7600 0.0000
80.7700 0.0000
80.7800 1.5021
80.7900 1.0859
80.8000 1.0915
80.8100 1.1021
80.8200 1.2505
80.8300 0.0000
80.8400 1.0320
80.8500 0.0000
80.8600 3.3091
80.8700 1.7434
80.8800 0.0000
80.8900 0.4997
80.9000 0.4508
80.9100 0.0000
80.9200 0.0000
80.9300 0.8470
80.9400 1.0861
80.9500 1.0376
80.9600 0.1917
80.9700 2.0468
80.9800 0.7057
80.9900 1.0212
81.0000 0.5476
81.0100 0.4232
81.0200 0.9624
81.0300 0.0000
81.0400 0.0000
81.0500 0.0000
81.0600 0.0000
81.0700 0.2449
81.0800 0.8444
81.0900 0.3951
81.1000 2.5223
81.1100 0.0000
81.1200 2.3343
81.1300 0.0000
81.1400 1.6565
81.1500 0.9896
81.1600 1.0063
81.1700 0.0000
81.1800 0.0000
81.1900 0.0000
81.2000 1.5083
81.2100 1.6127
81.2200 0.0000
81.2300 0.7267
81.2400 0.2618
81.2500 0.0000
81.2600 0.9563
81.2700 0.1124
81.2800 1.1060
81.2900 1.8533
81.3000 0.0000
81.3100 0.0000
81.3200 0.0000
81.3300 0.0000
81.3400 0.7692
81.3500 1.1897
81.3600 0.0000
81.3700 0.9913
81.3800 0.0000
81.3900 0.9861
81.4000 0.9539
81.4100 0.8652
81.4200 2.0978
81.4300 2.2939
81.4400 0.8117
81.4500 1.9754
81.4600 1.8327
81.4700 0.1897
81.4800 2.1378
81.4900 2.0068
81.5000 3.2726
81.5100 0.7044
81.5200 8.1523
81.5300 0.9539
81.5400 1.6435
81.5500 1.3213
81.5600 0.0000
81.5700 0.9585
81.5800 0.0000
81.5900 0.2744
81.6000 1.7839
81.6100 0.0000
81.6200 0.0000
81.6300 0.5240
81.6400 1.1125
81.6500 0.3983
81.6600 0.8089
81.6700 0.2098
81.6800 0.0000
81.6900 0.0000
81.7000 0.0000
81.7100 1.0690
81.7200 0.0000
81.7300 0.0000
81.7400 0.0000
81.7500 0.0000
81.7600 0.0000
81.7700 0.9771
81.7800 1.0348
81.7900 1.1104
81.8000 1.1383
81.8100 1.1629
81.8200 0.8075
81.8300 0.0000
81.8400 0.0000
81.8500 0.0000
81.8600 0.9923
81.8700 0.0000
81.8800 0.9904
81.8900 0.0000
81.9000 0.0000
81.9100 0.9454
81.9200 0.0000
81.9300 1.3256
81.9400 0.6605
81.9500 0.5085
81.9600 0.4482
81.9700 0.0000
81.9800 1.9550
81.9900 0.9109
82.0000 0.0911
82.0100 0.0000
82.0200 0.1887
82.0300 0.7927
82.0400 0.0000
82.0500 2.4393
82.0600 0.5142
82.0700 1.6900
82.0800 1.3883
82.0900 0.0000
82.1000 0.9684
82.1100 0.9840
82.1200 2.2614
82.1300 1.7561
82.1400 0.0000
82.1500 0.0000
82.1600 1.0111
82.1700 0.0000
82.1800 0.9852
82.1900 0.0000
82.2000 0.0000
82.2100 1.0171
82.2200 2.9173
82.2300 0.0000
82.2400 0.9599
82.2500 1.3831
82.2600 0.6386
82.2700 0.0000
82.2800 0.0000
82.2900 0.0000
82.3000 1.8234
82.3100 1.1136
82.3200 0.9666
82.3300 1.1111
82.3400 0.8557
82.3500 0.3101
82.3600 0.6990
82.3700 0.5145
82.3800 1.0982
82.3900 1.0605
82.4000 1.0916
82.4100 0.2230
82.4200 1.9035
82.4300 1.0791
82.4400 0.9368
82.4500 0.0000
82.4600 1.7676
82.4700 1.4948
82.4800 1.4505
82.4900 1.0761
82.5000 1.3107
82.5100 2.6127
82.5200 1.2631
82.5300 2.1172
82.5400 1.0888
82.5500 0.0000
82.5600 3.5095
82.5700 3.3080
82.5800 1.9172
82.5900 0.0000
82.6000 3.0694
82.6100 1.7180
82.6200 4.7489
82.6300 2.2332
82.6400 2.1430
82.6500 3.1284
82.6600 0.8881
82.6700 1.3350
82.6800 1.5437
82.6900 2.7153
82.7000 1.7203
82.7100 1.5277
82.7200 1.8432
82.7300 2.2667
82.7400 1.0804
82.7500 2.1094
82.7600 3.2935
82.7700 3.8823
82.7800 3.9901
82.7900 2.5120
82.8000 2.1174
82.8100 2.9956
82.8200 5.3066
82.8300 0.8069
82.8400 6.7239
82.8500 1.2250
82.8600 3.1366
82.8700 2.0393
82.8800 1.7731
82.8900 1.9467
82.9000 0.9727
82.9100 1.9241
82.9200 0.0000
82.9300 0.7531
82.9400 1.0362
82.9500 0.1164
82.9600 1.0307
82.9700 0.9703
82.9800 0.0000
82.9900 1.0051
83.0000 1.0045
83.0100 2.2611
83.0200 1.9973
83.0300 1.2851
83.0400 2.0830
83.0500 1.7816
83.0600 1.0285
83.0700 1.3217
83.0800 0.0000
83.0900 1.0081
83.1000 0.0000
83.1100 0.0000
83.1200 0.0000
83.1300 0.6478
83.1400 1.2621
83.1500 0.9791
83.1600 0.0000
83.1700 1.9685
83.1800 0.1356
83.1900 0.8190
83.2000 0.0000
83.2100 0.4255
83.2200 3.0069
83.2300 1.0378
83.2400 2.3538
83.2500 2.8100
83.2600 3.1252
83.2700 0.1109
83.2800 0.9903
83.2900 0.0000
83.3000 0.0000
83.3100 1.3965
83.3200 0.6345
83.3300 0.5752
83.3400 2.1599
83.3500 0.3591
83.3600 2.7795
83.3700 0.3104
83.3800 0.0000
83.3900 0.0000
83.4000 0.6335
83.4100 2.2632
83.4200 0.3835
83.4300 0.5577
83.4400 2.0823
83.4500 0.7604
83.4600 1.0848
83.4700 0.2970
83.4800 0.0000
83.4900 0.0000
83.5000 0.0000
83.5100 0.0000
83.5200 0.0000
83.5300 0.4693
83.5400 0.5834
83.5500 0.9660
83.5600 0.0000
83.5700 2.7658
83.5800 0.1676
83.5900 1.0035
83.6000 1.0461
83.6100 1.8997
83.6200 0.0000
83.6300 0.9666
83.6400 0.0000
83.6500 1.1603
83.6600 1.9000
83.6700 1.7615
83.6800 0.2328
83.6900 0.9642
83.7000 0.0442
83.7100 0.0000
83.7200 0.2523
83.7300 0.8020
83.7400 0.4132
83.7500 1.5452
83.7600 1.0706
83.7700 0.0000
83.7800 0.9574
83.7900 0.9720
83.8000 0.0000
83.8100 0.0000
83.8200 0.1823
83.8300 0.8124
83.8400 0.3668
83.8500 1.5558
83.8600 1.0715
83.8700 0.0000
83.8800 0.0000
83.8900 1.0061
83.9000 0.0000
83.9100 1.0505
83.9200 0.0000
83.9300 0.0000
83.9400 0.0000
83.9500 0.0000
83.9600 0.0000
83.9700 0.5703
83.9800 1.3825
83.9900 0.0000
84.0000 0.0000
84.0100 0.9405
84.0200 1.0687
84.0300 0.9073
84.0400 0.2607
84.0500 0.7423
84.0600 0.4186
84.0700 0.5143
84.0800 0.6064
84.0900 1.0627
84.1000 0.2630
84.1100 0.8897
84.1200 1.0645
84.1300 0.0000
84.1400 0.0000
84.1500 0.2913
84.1600 1.0914
84.1700 2.5639
84.1800 1.0434
84.1900 0.6411
84.2000 0.3075
84.2100 0.0000
84.2200 0.9312
84.2300 1.0634
84.2400 0.0000
84.2500 0.0000
84.2600 0.0000
84.2700 0.8307
84.2800 2.1648
84.2900 0.0000
84.3000 0.0000
84.3100 3.6568
84.3200 1.0747
84.3300 1.0671
84.3400 3.0961
84.3500 0.0000
84.3600 0.2788
84.3700 1.1013
84.3800 0.6439
84.3900 0.9925
84.4000 0.6521
84.4100 0.3388
84.4200 0.0000
84.4300 0.0000
84.4400 1.0438
84.4500 0.1398
84.4600 1.9080
84.4700 0.3143
84.4800 0.6713
84.4900 0.9704
84.5000 0.0000
84.5100 1.6581
84.5200 1.5751
84.5300 0.3357
84.5400 1.3067
84.5500 0.0063
84.5600 0.0000
84.5700 0.0000
84.5800 0.3485
84.5900 0.6271
84.6000 0.0000
84.6100 1.0835
84.6200 0.0000
84.6300 0.0000
84.6400 0.0000
84.6500 0.0000
84.6600 0.0000
84.6700 0.0000
84.6800 0.0000
84.6900 0.0000
84.7000 2.9675
84.7100 0.0000
84.7200 0.7396
84.7300 0.3501
84.7400 1.0007
84.7500 0.0000
84.7600 3.0864
84.7700 0.2936
84.7800 6.5336
84.7900 0.9942
84.8000 0.0000
84.8100 0.0000
84.8200 1.9989
84.8300 0.0000
84.8400 0.0000
84.8500 0.0000
84.8600 1.0060
84.8700 1.0196
84.8800 3.9908
84.8900 0.0000
84.9000 0.3921
84.9100 0.6456
84.9200 1.5343
84.9300 0.4426
84.9400 0.9351
84.9500 0.8896
84.9600 2.9890
84.9700 0.1101
84.9800 0.9400
84.9900 0.2227
85.0000 1.0650
85.0100 0.6503
85.0200 0.0000
85.0300 0.0000
85.0400 0.9546
85.0500 1.9499
85.0600 0.0000
85.0700 0.0000
85.0800 0.0000
85.0900 0.0000
85.1000 0.9653
85.1100 0.0000
85.1200 0.4577
85.1300 0.5493
85.1400 0.0000
85.1500 0.0000
85.1600 1.0225
85.1700 0.9853
85.1800 1.9465
85.1900 0.1290
85.2000 1.2126
85.2100 1.8303
85.2200 0.0000
85.2300 0.0000
85.2400 0.0000
85.2500 0.0000
85.2600 1.5266
85.2700 0.4406
85.2800 1.9561
85.2900 0.0348
85.3000 0.9727
85.3100 0.0000
85.3200 0.0000
85.3300 0.4356
85.3400 0.5617
85.3500 0.0000
85.3600 0.6840
85.3700 1.1866
85.3800 0.0000
85.3900 1.0016
85.4000 1.0448
85.4100 0.1842
85.4200 0.7753
85.4300 1.1445
85.4400 0.0000
85.4500 2.7231
85.4600 2.4420
85.4700 0.0000
85.4800 0.0000
85.4900 1.9485
85.5000 0.0000
85.5100 0.1273
85.5200 0.8095
85.5300 0.9893
85.5400 0.8090
85.5500 2.0954
85.5600 0.0000
85.5700 0.7168
85.5800 1.0916
85.5900 1.2781
85.6000 1.0066
85.6100 0.9475
85.6200 0.9725
85.6300 0.0000
85.6400 0.7264
85.6500 1.2746
85.6600 1.0286
85.6700 0.0000
85.6800 0.0000
85.6900 0.0000
85.7000 0.0000
85.7100 2.0108
85.7200 1.9698
85.7300 0.4187
85.7400 2.5467
85.7500 1.0132
85.7600 2.0641
85.7700 0.0000
85.7800 0.6962
85.7900 0.3208
85.8000 0.0000
85.8100 0.9961
85.8200 0.9680
85.8300 0.0000
85.8400 0.0000
85.8500 0.0000
85.8600 0.8731
85.8700 1.1126
85.8800 0.0000
85.8900 0.0000
85.9000 0.8318
85.9100 1.0507
85.9200 0.0838
85.9300 0.0000
85.9400 0.0000
85.9500 1.0259
85.9600 1.0335
85.9700 0.0000
85.9800 0.5513
85.9900 0.4118
86.0000 3.1140
86.0100 0.0000
86.0200 0.0000
86.0300 0.0000
86.0400 0.0000
86.0500 0.0000
86.0600 0.0000
86.0700 0.0000
86.0800 0.5119
86.0900 0.4794
86.1000 0.0000
86.1100 0.9951
86.1200 0.0000
86.1300 0.0000
86.1400 0.0797
86.1500 0.8830
86.1600 0.9546
86.1700 0.0000
86.1800 0.4497
86.1900 2.0400
86.2000 2.4948
86.2100 0.0000
86.2200 1.1647
86.2300 2.8879
86.2400 0.0000
86.2500 0.0000
86.2600 1.0863
86.2700 4.9440
86.2800 0.3938
86.2900 0.5803
86.3000 3.7027
86.3100 1.2251
86.3200 0.9812
86.3300 0.0000
86.3400 0.0000
86.3500 0.1357
86.3600 1.9510
86.3700 0.2666
86.3800 0.7838
86.3900 1.1786
86.4000 0.0000
86.4100 1.0118
86.4200 2.9614
86.4300 0.0000
86.4400 0.9350
86.4500 0.9889
86.4600 0.0000
86.4700 0.0000
86.4800 0.0000
86.4900 0.0000
86.5000 0.0000
86.5100 1.1228
86.5200 0.8288
86.5300 0.9789
86.5400 0.9582
86.5500 0.9567
86.5600 1.0394
86.5700 0.2768
86.5800 1.9207
86.5900 1.7760
86.6000 0.0000
86.6100 0.0000
86.6200 1.6546
86.6300 1.1206
86.6400 2.3035
86.6500 0.9417
86.6600 0.0000
86.6700 1.0401
86.6800 1.9695
86.6900 0.9947
86.7000 1.3254
86.7100 0.5974
86.7200 0.0000
86.7300 0.0000
86.7400 0.0000
86.7500 0.9499
86.7600 3.9814
86.7700 0.0648
86.7800 1.0519
86.7900 0.4296
86.8000 1.5376
86.8100 2.1966
86.8200 2.7528
86.8300 1.1368
86.8400 1.8546
86.8500 0.0000
86.8600 1.0119
86.8700 0.0000
86.8800 0.9879
86.8900 0.0000
86.9000 0.2632
86.9100 3.1342
86.9200 0.7111
86.9300 0.0000
86.9400 1.0813
86.9500 0.9796
86.9600 2.9863
86.9700 1.0713
86.9800 2.0345
86.9900 1.9842
87.0000 2.1908
87.0100 1.7745
87.0200 0.0000
87.0300 0.5433
87.0400 1.1372
87.0500 0.4067
87.0600 0.0000
87.0700 1.7016
87.0800 1.2655
87.0900 0.0491
87.1000 0.9286
87.1100 0.0000
87.1200 0.3237
87.1300 0.6473
87.1400 0.0000
87.1500 0.5733
87.1600 0.3565
87.1700 0.0000
87.1800 0.8556
87.1900 0.0953
87.2000 0.1820
87.2100 4.0848
87.2200 1.7867
87.2300 0.0000
87.2400 0.4441
87.2500 0.5087
87.2600 0.0000
87.2700 0.7519
87.2800 2.0262
87.2900 1.0624
87.3000 1.9668
87.3100 0.0000
87.3200 0.0000
87.3300 0.0000
87.3400 0.0000
87.3500 2.4549
87.3600 1.4577
87.3700 0.6982
87.3800 1.2926
87.3900 0.0000
87.4000 0.0000
87.4100 0.0000
87.4200 0.1646
87.4300 1.8155
87.4400 1.4282
87.4500 1.7140
87.4600 2.0106
87.4700 1.5020
87.4800 0.5092
87.4900 0.8451
87.5000 1.3178
87.5100 2.1097
87.5200 0.1375
87.5300 0.0000
87.5400 0.3383
87.5500 0.7972
87.5600 0.0000
87.5700 0.5695
87.5800 0.4105
87.5900 0.0000
87.6000 0.8528
87.6100 0.1339
87.6200 2.0063
87.6300 0.1436
87.6400 1.3135
87.6500 1.5148
87.6600 0.8560
87.6700 2.6492
87.6800 1.0804
87.6900 0.3695
87.7000 0.0000
87.7100 0.0000
87.7200 0.0000
87.7300 0.0881
87.7400 0.8752
87.7500 1.2277
87.7600 1.0854
87.7700 0.5970
87.7800 0.5316
87.7900 1.4632
87.8000 0.0000
87.8100 2.5538
87.8200 0.4627
87.8300 0.0340
87.8400 0.9263
87.8500 0.2204
87.8600 0.7627
87.8700 0.0000
87.8800 0.0000
87.8900 0.0000
87.9000 0.7495
87.9100 0.3271
87.9200 0.0000
87.9300 0.0000
87.9400 0.0000
87.9500 1.0246
87.9600 0.9812
87.9700 0.9751
87.9800 0.0000
87.9900 0.0000
88.0000 2.5834
88.0100 1.1635
88.0200 3.3885
88.0300 0.0000
88.0400 0.0000
88.0500 1.9815
88.0600 0.0000
88.0700 0.0000
88.0800 0.0000
88.0900 0.0000
88.1000 0.0000
88.1100 1.0307
88.1200 0.9814
88.1300 0.9931
88.1400 1.9449
88.1500 0.0554
88.1600 0.9341
88.1700 0.0000
88.1800 0.9778
88.1900 0.0000
88.2000 0.0000
88.2100 0.0000
88.2200 0.7401
88.2300 1.1008
88.2400 1.1362
88.2500 1.9688
88.2600 1.0019
88.2700 0.0000
88.2800 1.0319
88.2900 0.0000
88.3000 0.0000
88.3100 0.0000
88.3200 0.0000
88.3300 0.7616
88.3400 1.0665
88.3500 1.1892
88.3600 2.1648
88.3700 0.0000
88.3800 0.3143
88.3900 0.0000
88.4000 0.6285
88.4100 0.4848
88.4200 1.4808
88.4300 0.0000
88.4400 0.0000
88.4500 1.0006
88.4600 1.8972
88.4700 0.0167
88.4800 0.0000
88.4900 0.0000
88.5000 0.0000
88.5100 0.8999
88.5200 1.6198
88.5300 1.4968
88.5400 0.0000
88.5500 2.0482
88.5600 0.0000
88.5700 0.0203
88.5800 0.9679
88.5900 1.2042
88.6000 0.8472
88.6100 0.0000
88.6200 0.0000
88.6300 0.0000
88.6400 0.0000
88.6500 0.0000
88.6600 0.0000
88.6700 0.0000
88.6800 0.6643
88.6900 0.0000
88.7000 0.3322
88.7100 0.0000
88.7200 0.0000
88.7300 0.0000
88.7400 0.0000
88.7500 1.1280
88.7600 1.0564
88.7700 0.0000
88.7800 1.9851
88.7900 0.9566
88.8000 0.0000
88.8100 0.0000
88.8200 0.9830
88.8300 0.0000
88.8400 0.0000
88.8500 0.0000
88.8600 0.0000
88.8700 0.0000
88.8800 0.0000
88.8900 0.0431
88.9000 1.1425
88.9100 1.8613
88.9200 0.0000
88.9300 0.0000
88.9400 1.0145
88.9500 0.0000
88.9600 2.2139
88.9700 2.0477
88.9800 2.0179
88.9900 0.0000
89.0000 0.0000
89.0100 0.1720
89.0200 0.8167
89.0300 0.3502
89.0400 0.6153
89.0500 0.0000
89.0600 1.0971
89.0700 0.7144
89.0800 0.2506
89.0900 0.9713
89.1000 1.0139
89.1100 0.0000
89.1200 0.0000
89.1300 0.0000
89.1400 0.0000
89.1500 1.9634
89.1600 0.0000
89.1700 1.0628
89.1800 0.7673
89.1900 1.1971
89.2000 0.0000
89.2100 0.0000
89.2200 0.7892
89.2300 5.5579
89.2400 1.7752
89.2500 2.7288
89.2600 3.9033
89.2700 1.4298
89.2800 0.9915
89.2900 2.5448
89.3000 2.1577
89.3100 0.1751
89.3200 0.0000
89.3300 0.0000
89.3400 2.2577
89.3500 0.6840
89.3600 0.0000
89.3700 0.0000
89.3800 2.5961
89.3900 0.3306
89.4000 1.6815
89.4100 1.3087
89.4200 0.0418
89.4300 0.9062
89.4400 0.0000
89.4500 0.0000
89.4600 0.0000
89.4700 0.9799
89.4800 0.0000
89.4900 0.0000
89.5000 0.0000
89.5100 0.9159
89.5200 0.1090
89.5300 1.0096
89.5400 0.0000
89.5500 1.0879
89.5600 0.3467
89.5700 0.6016
89.5800 0.0000
89.5900 0.0000
89.6000 0.0000
89.6100 0.0000
89.6200 0.0000
89.6300 1.0276
89.6400 0.9706
89.6500 0.0000
89.6600 0.9676
89.6700 0.4024
89.6800 1.6013
89.6900 1.0143
89.7000 2.5036
89.7100 0.6529
89.7200 0.0000
89.7300 0.0000
89.7400 1.9660
89.7500 0.0000
89.7600 0.0000
89.7700 1.1223
89.7800 0.9811
89.7900 1.0853
89.8000 2.5513
89.8100 1.0879
89.8200 1.2521
89.8300 1.0640
89.8400 0.0099
89.8500 2.1217
89.8600 0.2365
89.8700 0.9612
89.8800 0.0000
89.8900 1.0040
89.9000 1.6004
89.9100 1.3492
89.9200 0.7763
89.9300 3.3013
89.9400 0.0000
89.9500 0.0000
89.9600 0.0000
89.9700 0.0000
89.9800 0.0000
89.9900 0.0000
90.0000 1.4992
90.0100 2.1150
90.0200 1.0420
90.0300 1.9461
90.0400 0.4113
90.0500 1.0085
90.0600 2.0375
90.0700 1.8160
90.0800 2.3592
90.0900 1.7356
90.1000 0.0000
90.1100 0.0000
90.1200 0.0000
90.1300 0.0000
90.1400 0.0000
90.1500 0.9961
90.1600 1.9356
90.1700 1.9831
90.1800 0.0000
90.1900 1.3165
90.2000 1.0690
90.2100 1.0889
90.2200 0.4975
90.2300 0.6936
90.2400 2.0541
90.2500 2.7811
90.2600 1.3010
90.2700 0.1385
90.2800 1.9094
90.2900 0.9517
90.3000 1.0813
90.3100 0.9828
90.3200 0.0000
90.3300 2.8935
90.3400 3.5391
90.3500 1.3639
90.3600 0.1783
90.3700 0.0000
90.3800 0.0000
90.3900 0.0000
90.4000 0.0000
90.4100 1.4579
90.4200 0.6063
90.4300 0.0000
90.4400 0.0000
90.4500 0.0000
90.4600 0.0000
90.4700 0.0000
90.4800 0.0000
90.4900 0.1461
90.5000 0.8666
90.5100 0.3291
90.5200 0.6589
90.5300 0.0000
90.5400 1.6495
90.5500 0.4242
90.5600 0.0000
90.5700 0.9000
90.5800 1.0664
90.5900 2.9152
90.6000 0.1789
90.6100 2.2827
90.6200 2.0142
90.6300 2.8623
90.6400 1.8959
90.6500 1.8675
90.6600 0.7888
90.6700 1.2851
90.6800 1.8688
90.6900 0.1586
90.7000 1.0426
90.7100 0.0000
90.7200 0.6497
90.7300 2.4072
90.7400 1.4569
90.7500 0.4741
90.7600 0.0000
90.7700 0.9636
90.7800 0.5565
90.7900 1.0467
90.8000 1.2622
90.8100 0.0000
90.8200 0.0000
90.8300 0.9667
90.8400 0.0000
90.8500 0.5396
90.8600 0.4551
90.8700 0.7039
90.8800 1.2875
90.8900 1.8694
90.9000 0.1086
90.9100 2.0219
90.9200 1.1431
90.9300 0.8094
90.9400 0.0000
90.9500 0.0000
90.9600 0.0000
90.9700 0.6490
90.9800 0.3122
90.9900 0.0000
91.0000 1.9620
91.0100 0.0000
91.0200 0.1358
91.0300 1.7243
91.0400 0.3504
91.0500 1.6666
91.0600 0.0000
91.0700 2.0395
91.0800 0.0000
91.0900 0.8508
91.1000 1.0776
91.1100 0.0947
91.1200 2.0011
91.1300 1.0331
91.1400 0.0000
91.1500 0.9611
91.1600 0.0000
91.1700 0.9804
91.1800 0.0000
91.1900 0.0000
91.2000 0.8221
91.2100 0.1493
91.2200 1.0762
91.2300 0.0000
91.2400 0.0000
91.2500 0.3153
91.2600 2.0705
91.2700 0.5534
91.2800 0.0000
91.2900 0.0000
91.3000 0.0000
91.3100 0.0000
91.3200 0.0000
91.3300 0.1458
91.3400 2.9005
91.3500 0.0000
91.3600 0.0000
91.3700 0.9974
91.3800 1.0308
91.3900 1.0597
91.4000 0.0000
91.4100 0.0000
91.4200 0.0000
91.4300 0.0000
91.4400 0.1132
91.4500 0.9000
91.4600 1.0522
91.4700 0.9853
91.4800 0.0000
91.4900 1.2453
91.5000 0.8881
91.5100 0.9586
91.5200 0.0000
91.5300 0.0000
91.5400 0.9743
91.5500 0.0000
91.5600 0.6206
91.5700 0.0000
91.5800 0.3103
91.5900 1.5571
91.6000 1.3938
91.6100 0.7216
91.6200 1.0662
91.6300 0.1821
91.6400 0.0000
91.6500 1.0471
91.6600 2.0845
91.6700 1.3699
91.6800 2.4593
91.6900 0.0000
91.7000 0.5869
91.7100 0.4500
91.7200 1.0954
91.7300 0.0000
91.7400 0.3196
91.7500 1.0717
91.7600 0.6150
91.7700 0.9930
91.7800 0.2934
91.7900 0.6202
91.8000 0.0000
91.8100 0.0000
91.8200 0.0000
91.8300 0.8866
91.8400 0.2312
91.8500 0.0000
91.8600 0.0000
91.8700 0.1670
91.8800 0.8114
91.8900 0.3492
91.9000 2.6858
91.9100 0.0000
91.9200 0.0000
91.9300 0.0000
91.9400 0.8488
91.9500 0.1720
91.9600 0.0200
91.9700 1.0811
91.9800 2.9002
91.9900 0.9888
92.0000 0.7733
92.0100 1.1704
92.0200 0.0000
92.0300 2.1454
92.0400 0.0000
92.0500 0.0000
92.0600 0.9106
92.0700 0.0338
92.0800 0.0000
92.0900 0.0000
92.1000 0.0000
92.1100 0.0000
92.1200 0.5148
92.1300 0.4555
92.1400 0.0000
92.1500 1.8977
92.1600 0.2252
92.1700 0.9416
92.1800 0.0000
92.1900 0.1988
92.2000 2.7596
92.2100 0.9822
92.2200 0.0000
92.2300 0.9814
92.2400 0.0000
92.2500 0.0000
92.2600 0.0000
92.2700 0.9924
92.2800 0.9835
92.2900 0.0000
92.3000 0.0000
92.3100 0.0000
92.3200 0.0000
92.3300 0.4983
92.3400 0.4733
92.3500 1.7870
92.3600 0.3166
92.3700 0.9912
92.3800 0.0000
92.3900 1.9915
92.4000 0.0000
92.4100 0.9760
92.4200 0.7131
92.4300 1.2546
92.4400 0.9976
92.4500 0.6444
92.4600 0.3538
92.4700 0.8245
92.4800 2.0542
92.4900 0.0717
92.5000 0.0000
92.5100 0.0000
92.5200 1.0156
92.5300 0.0000
92.5400 1.9581
92.5500 0.5676
92.5600 0.3952
92.5700 0.0000
92.5800 0.9578
92.5900 0.0000
92.6000 0.0694
92.6100 1.0593
92.6200 1.0397
92.6300 2.3267
92.6400 1.0519
92.6500 5.0987
92.6600 1.0304
92.6700 1.6896
92.6800 2.2539
92.6900 0.9186
92.7000 0.1009
92.7100 2.0464
92.7200 0.0000
92.7300 0.0000
92.7400 0.0000
92.7500 0.4719
92.7600 1.2840
92.7700 0.5747
92.7800 2.3861
92.7900 0.4118
92.8000 0.9325
92.8100 1.0197
92.8200 0.0000
92.8300 0.0000
92.8400 0.0000
92.8500 1.0249
92.8600 1.0419
92.8700 0.9782
92.8800 0.9505
92.8900 1.5863
92.9000 0.3992
92.9100 2.0094
92.9200 0.1779
92.9300 1.7092
92.9400 0.0000
92.9500 0.7207
92.9600 1.2522
92.9700 0.0000
92.9800 0.9430
92.9900 2.2280
93.0000 0.7711
93.0100 0.9253
93.0200 0.0679
93.0300 0.0000
93.0400 0.0000
93.0500 0.0000
93.0600 0.0000
93.0700 0.9640
93.0800 0.9507
93.0900 0.9598
93.1000 0.0000
93.1100 0.0000
93.1200 0.0000
93.1300 0.0627
93.1400 1.2146
93.1500 1.8576
93.1600 0.7414
93.1700 0.4687
93.1800 1.5808
93.1900 1.0835
93.2000 0.0000
93.2100 0.0000
93.2200 0.0000
93.2300 0.9792
93.2400 0.9553
93.2500 0.0000
93.2600 0.0000
93.2700 2.7500
93.2800 1.2740
93.2900 0.0000
93.3000 0.0000
93.3100 0.8019
93.3200 0.2484
93.3300 0.0000
93.3400 0.0463
93.3500 1.0869
93.3600 0.8609
93.3700 0.0000
93.3800 0.4279
93.3900 0.5807
93.4000 0.6448
93.4100 0.4070
93.4200 0.0000
93.4300 0.9018
93.4400 0.1044
93.4500 0.0000
93.4600 0.0000
93.4700 0.0000
93.4800 1.0021
93.4900 0.4479
93.5000 1.5288
93.5100 0.6644
93.5200 3.1443
93.5300 1.2627
93.5400 1.9362
93.5500 1.9607
93.5600 0.0000
93.5700 0.0000
93.5800 0.0000
93.5900 0.0000
93.6000 0.4907
93.6100 1.0679
93.6200 0.3936
93.6300 0.0000
93.6400 1.9797
93.6500 0.9794
93.6600 1.1041
93.6700 0.9389
93.6800 0.0000
93.6900 0.0000
93.7000 0.8765
93.7100 1.0937
93.7200 0.0000
93.7300 0.0000
93.7400 1.1489
93.7500 1.0697
93.7600 0.0218
93.7700 1.9135
93.7800 0.2003
93.7900 0.8009
93.8000 0.0000
93.8100 0.0000
93.8200 0.0000
93.8300 0.0000
93.8400 0.7342
93.8500 2.1069
93.8600 1.2084
93.8700 1.1015
93.8800 0.1473
93.8900 1.1209
93.9000 0.7824
93.9100 0.0000
93.9200 0.0000
93.9300 0.0000
93.9400 0.0000
93.9500 0.8187
93.9600 0.1987
93.9700 0.0000
93.9800 0.0000
93.9900 0.0000
94.0000 0.2652
94.0100 0.6932
94.0200 0.4614
94.0300 0.5298
94.0400 0.0000
94.0500 1.6835
94.0600 0.2396
94.0700 0.0000
94.0800 0.9836
94.0900 0.1162
94.1000 1.0225
94.1100 0.7715
94.1200 0.4645
94.1300 0.6700
94.1400 3.3332
94.1500 1.5742
94.1600 0.0000
94.1700 0.8676
94.1800 1.1849
94.1900 1.1731
94.2000 1.2819
94.2100 2.9633
94.2200 1.1588
94.2300 1.6755
94.2400 1.0064
94.2500 0.7174
94.2600 1.4046
94.2700 0.9591
94.2800 0.0000
94.2900 0.0000
94.3000 0.0000
94.3100 0.0000
94.3200 0.0000
94.3300 0.0000
94.3400 0.0000
94.3500 0.0000
94.3600 0.0000
94.3700 0.0000
94.3800 1.7832
94.3900 1.1265
94.4000 1.0341
94.4100 0.0000
94.4200 0.0000
94.4300 0.0000
94.4400 0.0000
94.4500 2.4250
94.4600 1.0380
94.4700 1.0663
94.4800 2.1040
94.4900 0.1958
94.5000 0.0000
94.5100 0.0000
94.5200 0.9831
94.5300 0.2629
94.5400 1.0237
94.5500 1.9499
94.5600 1.5551
94.5700 0.6520
94.5800 0.3401
94.5900 0.0000
94.6000 4.0115
94.6100 1.9560
94.6200 0.0000
94.6300 0.2289
94.6400 1.9794
94.6500 0.0000
94.6600 0.0000
94.6700 0.0000
94.6800 1.0206
94.6900 0.0000
94.7000 0.8841
94.7100 0.1157
94.7200 0.0765
94.7300 1.1344
94.7400 0.8197
94.7500 0.0000
94.7600 0.2816
94.7700 0.3432
94.7800 0.1998
94.7900 0.1126
94.8000 0.8154
94.8100 0.1691
94.8200 1.0039
94.8300 0.9427
94.8400 2.0437
94.8500 0.0000
94.8600 0.0000
94.8700 0.0000
94.8800 0.5870
94.8900 0.4191
94.9000 0.0000
94.9100 0.0000
94.9200 0.0000
94.9300 0.0000
94.9400 0.0000
94.9500 0.0000
94.9600 0.0000
94.9700 0.4527
94.9800 0.5929
94.9900 0.9860
95.0000 0.0000
95.0100 0.0000
95.0200 0.0000
95.0300 0.0000
95.0400 1.0447
95.0500 0.0000
95.0600 0.0000
95.0700 0.0000
95.0800 0.4744
95.0900 0.5322
95.1000 0.9319
95.1100 0.0000
95.1200 0.0000
95.1300 1.9896
95.1400 0.0000
95.1500 0.0000
95.1600 0.0000
95.1700 0.7424
95.1800 1.5715
95.1900 0.9504
95.2000 1.5951
95.2100 0.3854
95.2200 0.0000
95.2300 0.9612
95.2400 0.9477
95.2500 0.9890
95.2600 0.0000
95.2700 2.2300
95.2800 2.0155
95.2900 0.6207
95.3000 0.0000
95.3100 1.6590
95.3200 1.8480
95.3300 0.5323
95.3400 0.9408
95.3500 0.0000
95.3600 0.0000
95.3700 0.0000
95.3800 0.0000
95.3900 0.4037
95.4000 1.0860
95.4100 0.4898
95.4200 0.0000
95.4300 0.7733
95.4400 4.1115
95.4500 0.1225
95.4600 1.9474
95.4700 0.0000
95.4800 0.0000
95.4900 3.3468
95.5000 2.5951
95.5100 2.9841
95.5200 1.8275
95.5300 0.0000
95.5400 1.0103
95.5500 0.9049
95.5600 0.0919
95.5700 0.0000
95.5800 0.0000
95.5900 0.0000
95.6000 0.9814
95.6100 0.0000
95.6200 0.9871
95.6300 0.0000
95.6400 0.0000
95.6500 0.0000
95.6600 1.0191
95.6700 3.0154
95.6800 0.0000
95.6900 0.0000
95.7000 0.3117
95.7100 2.2510
95.7200 2.0415
95.7300 1.6450
95.7400 0.0000
95.7500 0.9935
95.7600 0.0000
95.7700 0.0000
95.7800 0.0000
95.7900 0.0000
95.8000 0.0000
95.8100 0.3880
95.8200 0.6836
95.8300 0.0000
95.8400 0.0000
95.8500 1.7391
95.8600 0.2628
95.8700 0.0000
95.8800 1.0169
95.8900 0.0000
95.9000 0.0000
95.9100 1.0173
95.9200 0.0000
95.9300 0.0000
95.9400 0.0000
95.9500 0.0000
95.9600 0.9331
95.9700 1.0380
95.9800 0.0000
95.9900 1.0440
96.0000 0.9619
96.0100 0.2367
96.0200 0.7103
96.0300 0.0000
96.0400 0.0000
96.0500 0.0000
96.0600 2.6507
96.0700 1.3116
96.0800 0.8533
96.0900 2.1919
96.1000 1.0960
96.1100 0.8713
96.1200 0.0000
96.1300 0.0000
96.1400 0.4663
96.1500 0.5111
96.1600 0.6789
96.1700 0.3407
96.1800 0.0000
96.1900 1.9224
96.2000 1.0892
96.2100 0.1262
96.2200 0.0000
96.2300 0.0000
96.2400 0.0000
96.2500 0.9929
96.2600 0.0000
96.2700 0.0000
96.2800 0.8119
96.2900 0.2047
96.3000 0.0000
96.3100 0.9620
96.3200 1.0068
96.3300 0.2600
96.3400 0.7008
96.3500 0.0000
96.3600 0.0000
96.3700 0.0000
96.3800 0.0000
96.3900 0.0000
96.4000 0.0000
96.4100 0.0000
96.4200 0.0000
96.4300 0.0000
96.4400 0.9951
96.4500 0.0000
96.4600 2.1297
96.4700 0.0000
96.4800 0.0000
96.4900 0.0000
96.5000 0.9608
96.5100 0.0000
96.5200 0.9932
96.5300 0.0000
96.5400 0.2599
96.5500 0.7679
96.5600 1.0036
96.5700 0.5644
96.5800 1.0923
96.5900 2.0713
96.6000 1.0310
96.6100 0.1677
96.6200 0.1325
96.6300 1.0462
96.6400 0.1999
96.6500 1.1145
96.6600 0.9663
96.6700 0.3813
96.6800 0.1782
96.6900 1.2011
96.7000 0.9973
96.7100 0.8668
96.7200 0.1440
96.7300 1.9908
96.7400 0.1372
96.7500 1.8626
96.7600 0.0000
96.7700 0.0000
96.7800 0.0000
96.7900 0.5995
96.8000 0.3789
96.8100 0.0000
96.8200 0.0000
96.8300 0.0000
96.8400 0.0000
96.8500 0.1737
96.8600 2.7844
96.8700 0.0000
96.8800 0.9532
96.8900 0.0000
96.9000 2.0101
96.9100 2.3177
96.9200 2.6139
96.9300 1.1236
96.9400 0.0285
96.9500 0.9670
96.9600 0.0000
96.9700 0.2900
96.9800 0.6401
96.9900 1.4733
97.0000 0.4923
97.0100 1.3709
97.0200 0.6176
97.0300 0.0000
97.0400 0.0000
97.0500 0.0661
97.0600 1.9293
97.0700 0.0000
97.0800 1.0451
97.0900 0.4238
97.1000 1.6287
97.1100 0.0000
97.1200 0.0000
97.1300 0.0000
97.1400 0.9711
97.1500 1.0909
97.1600 1.0151
97.1700 0.2052
97.1800 3.7966
97.1900 0.3944
97.2000 0.6207
97.2100 0.0000
97.2200 0.0000
97.2300 0.0000
97.2400 0.0000
97.2500 1.0248
97.2600 0.9984
97.2700 1.0937
97.2800 0.8380
97.2900 0.0000
97.3000 0.0000
97.3100 0.9580
97.3200 0.0000
97.3300 0.0000
97.3400 0.0000
97.3500 1.8578
97.3600 0.1027
97.3700 0.0874
97.3800 0.9100
97.3900 0.0000
97.4000 1.0565
97.4100 0.9964
97.4200 0.5614
97.4300 0.4418
97.4400 0.9358
97.4500 0.0000
97.4600 0.0000
97.4700 0.0300
97.4800 0.9200
97.4900 1.2908
97.5000 0.8019
97.5100 0.4019
97.5200 1.0804
97.5300 1.0558
97.5400 0.3784
97.5500 0.7936
97.5600 1.1962
97.5700 0.9865
97.5800 0.0000
97.5900 1.0172
97.6000 0.0000
97.6100 0.3676
97.6200 0.6736
97.6300 0.9632
97.6400 0.0000
97.6500 0.9750
97.6600 1.8544
97.6700 1.1923
97.6800 0.0897
97.6900 0.2112
97.7000 1.9511
97.7100 0.8289
97.7200 1.0070
97.7300 0.0000
97.7400 0.5953
97.7500 0.4307
97.7600 1.7767
97.7700 2.2209
97.7800 0.0000
97.7900 0.0000
97.8000 0.1366
97.8100 0.7956
97.8200 0.0000
97.8300 0.0000
97.8400 0.5138
97.8500 1.0523
97.8600 1.0902
97.8700 1.2863
97.8800 0.0000
97.8900 0.9982
97.9000 0.9790
97.9100 0.0000
97.9200 0.9956
97.9300 1.0753
97.9400 0.4875
97.9500 0.5540
97.9600 0.0000
97.9700 0.0000
97.9800 0.0000
97.9900 0.0000
98.0000 0.0000
98.0100 0.0000
98.0200 0.2165
98.0300 0.7532
98.0400 0.0000
98.0500 0.9831
98.0600 0.0000
98.0700 0.6717
98.0800 1.2792
98.0900 0.0000
98.1000 0.9775
98.1100 0.0216
98.1200 0.1661
98.1300 0.8275
98.1400 0.3474
98.1500 1.0844
98.1600 1.0881
98.1700 1.6834
98.1800 0.6995
98.1900 0.7847
98.2000 0.1631
98.2100 0.9889
98.2200 0.9706
98.2300 0.0000
98.2400 1.3451
98.2500 1.6764
98.2600 0.0000
98.2700 0.0000
98.2800 0.0000
98.2900 0.0000
98.3000 0.0000
98.3100 0.0000
98.3200 0.9425
98.3300 2.0029
98.3400 0.0000
98.3500 0.0000
98.3600 0.0000
98.3700 1.4691
98.3800 0.4436
98.3900 0.7201
98.4000 1.2236
98.4100 0.8544
98.4200 0.0901
98.4300 0.0000
98.4400 0.0000
98.4500 0.6023
98.4600 1.9351
98.4700 0.6671
98.4800 0.9944
98.4900 0.6589
98.5000 1.1148
98.5100 1.0955
98.5200 0.1504
98.5300 0.0352
98.5400 0.9074
98.5500 0.2325
98.5600 0.7955
98.5700 0.9778
98.5800 0.9339
98.5900 0.6057
98.6000 1.4293
98.6100 0.0000
98.6200 0.9903
98.6300 0.0000
98.6400 0.0000
98.6500 1.0039
98.6600 0.0000
98.6700 0.3449
98.6800 0.6161
98.6900 0.5224
98.7000 1.0736
98.7100 0.3580
98.7200 0.0000
98.7300 0.9990
98.7400 1.9384
98.7500 0.9751
98.7600 0.0000
98.7700 0.0000
98.7800 1.1894
98.7900 2.3033
98.8000 0.5153
98.8100 0.6628
98.8200 2.0454
98.8300 0.2230
98.8400 0.9013
98.8500 0.1524
98.8600 1.9236
98.8700 0.0000
98.8800 1.0675
98.8900 0.0000
98.9000 0.9727
98.9100 1.7142
98.9200 0.3605
98.9300 0.0000
98.9400 0.9974
98.9500 0.0000
98.9600 1.0789
98.9700 1.9054
98.9800 0.9686
98.9900 2.9213
99.0000 0.9598
99.0100 1.0656
99.0200 0.0000
99.0300 0.0000
99.0400 1.9855
99.0500 0.9047
99.0600 3.1692
99.0700 3.1980
99.0800 2.8014
99.0900 2.0078
99.1000 1.2376
99.1100 1.7244
99.1200 1.0752
99.1300 1.6779
99.1400 1.0719
99.1500 1.1611
99.1600 2.0285
99.1700 1.2146
99.1800 5.8113
99.1900 0.0000
99.2000 1.9538
99.2100 2.3924
99.2200 1.4807
99.2300 0.0000
99.2400 2.9008
99.2500 1.0880
99.2600 1.1603
99.2700 0.0227
99.2800 2.2022
99.2900 1.9941
99.3000 1.3470
99.3100 2.4687
99.3200 0.5114
99.3300 1.0859
99.3400 1.3802
99.3500 0.7911
99.3600 1.2309
99.3700 3.0788
99.3800 2.3805
99.3900 3.0954
99.4000 1.0090
99.4100 2.8070
99.4200 1.0988
99.4300 2.0346
99.4400 0.4564
99.4500 1.4515
99.4600 2.3608
99.4700 2.0624
99.4800 1.1452
99.4900 1.9129
99.5000 0.0000
99.5100 0.2852
99.5200 0.7050
99.5300 0.9888
99.5400 0.0000
99.5500 1.0924
99.5600 0.0000
99.5700 0.9827
99.5800 3.0810
99.5900 0.0436
99.6000 0.9670
99.6100 0.0000
99.6200 0.9915
99.6300 0.0000
99.6400 0.0000
99.6500 0.6845
99.6600 0.4385
99.6700 1.0551
99.6800 0.0000
99.6900 0.9586
99.7000 1.5183
99.7100 3.0701
99.7200 0.5422
99.7300 0.0000
99.7400 0.0000
99.7500 0.5272
99.7600 1.3997
99.7700 0.0000
99.7800 0.0000
99.7900 0.8905
99.8000 1.0851
99.8100 0.0000
99.8200 0.0000
99.8300 0.3376
99.8400 0.7564
99.8500 0.0000
99.8600 0.0000
99.8700 0.0000
99.8800 0.0000
99.8900 2.9365
99.9000 0.0000
99.9100 0.0000
99.9200 0.0000
99.9300 0.0000
99.9400 0.0000
99.9500 0.0000
99.9600 2.0706
99.9700 0.0000
99.9800 0.0000
99.9900 1.6472
100.0000 0.3642
100.0100 0.9908
100.0200 0.0000
100.0300 0.1930
100.0400 0.7892
100.0500 1.4054
100.0600 0.6110
100.0700 0.0000
100.0800 0.0000
100.0900 1.8075
100.1000 0.2321
100.1100 0.0000
100.1200 0.0000
100.1300 0.1467
100.1400 1.6236
100.1500 3.3207
100.1600 0.0000
100.1700 0.0000
100.1800 0.0000
100.1900 0.0000
100.2000 0.0000
100.2100 0.0000
100.2200 1.0446
100.2300 0.9595
100.2400 0.1890
100.2500 0.8682
100.2600 0.0000
100.2700 0.0000
100.2800 0.5426
100.2900 1.0709
100.3000 1.3119
100.3100 0.0000
100.3200 0.9654
100.3300 0.0274
100.3400 3.0190
100.3500 0.2275
100.3600 0.8202
100.3700 1.0154
100.3800 0.0000
100.3900 0.6595
100.4000 0.4495
100.4100 0.0000
100.4200 0.0000
100.4300 1.0384
100.4400 0.0000
100.4500 0.1803
100.4600 2.1215
100.4700 0.7086
100.4800 0.4416
100.4900 0.5524
100.5000 0.6631
100.5100 0.3844
100.5200 0.0000
100.5300 1.4792
100.5400 0.1353
100.5500 0.3187
100.5600 0.0000
100.5700 1.2912
100.5800 0.7218
100.5900 0.4734
100.6000 0.5076
100.6100 0.0000
100.6200 0.9853
100.6300 0.9694
100.6400 0.1576
100.6500 0.0000
100.6600 0.1418
100.6700 0.8474
100.6800 1.4499
100.6900 0.6817
100.7000 0.0000
100.7100 0.6405
100.7200 0.4005
100.7300 1.9960
100.7400 0.0000
100.7500 3.9706
100.7600 3.1121
100.7700 1.0694
100.7800 1.0821
100.7900 1.0664
100.8000 1.5236
100.8100 3.1032
100.8200 0.0000
100.8300 0.0000
100.8400 0.0000
100.8500 2.0739
100.8600 0.9830
100.8700 0.0000
100.8800 0.2202
100.8900 0.7805
100.9000 0.0000
100.9100 0.0000
100.9200 0.0000
100.9300 0.6721
100.9400 1.2516
100.9500 0.9542
100.9600 0.0000
100.9700 0.0000
100.9800 0.0000
100.9900 0.0000
101.0000 0.0000
101.0100 0.4663
101.0200 0.5766
101.0300 0.6175
101.0400 1.3339
101.0500 3.0144
101.0600 0.0000
101.0700 0.0000
101.0800 1.0239
101.0900 0.2007
101.1000 2.7591
101.1100 1.0152
101.1200 0.9688
101.1300 0.9956
101.1400 0.0000
101.1500 0.0000
101.1600 0.0000
101.1700 0.0000
101.1800 0.0505
101.1900 0.9239
101.2000 1.0109
101.2100 0.0000
101.2200 0.0000
101.2300 0.9691
101.2400 0.5857
101.2500 2.0414
101.2600 0.2837
101.2700 0.0000
101.2800 2.0348
101.2900 0.0042
101.3000 0.1885
101.3100 0.8329
101.3200 0.0000
101.3300 0.0000
101.3400 0.0000
101.3500 0.0000
101.3600 1.0448
101.3700 0.0000
101.3800 0.9287
101.3900 0.0373
101.4000 1.0566
101.4100 0.0000
101.4200 1.0088
101.4300 0.4141
101.4400 2.0554
101.4500 1.4921
101.4600 0.0000
101.4700 1.0682
101.4800 0.0000
101.4900 0.0000
101.5000 0.0000
101.5100 0.0000
101.5200 0.0000
101.5300 0.9926
101.5400 0.0000
101.5500 0.0000
101.5600 2.9248
101.5700 4.1266
101.5800 0.0000
101.5900 2.0021
101.6000 0.0491
101.6100 3.9188
101.6200 2.7445
101.6300 3.1616
101.6400 0.0000
101.6500 0.5094
101.6600 1.1341
101.6700 0.4299
101.6800 0.0000
101.6900 0.8488
101.7000 2.2161
101.7100 0.9156
101.7200 0.1460
101.7300 1.0710
101.7400 0.7394
101.7500 0.0000
101.7600 0.9843
101.7700 0.0000
101.7800 0.9683
101.7900 0.8004
101.8000 2.0990
101.8100 1.0703
101.8200 0.0000
101.8300 0.1849
101.8400 0.8013
101.8500 0.3697
101.8600 0.6128
101.8700 1.9329
101.8800 0.6490
101.8900 0.3352
101.9000 0.1044
101.9100 0.0187
101.9200 0.0000
101.9300 0.0000
101.9400 0.9959
101.9500 0.0000
101.9600 0.0000
101.9700 0.0000
101.9800 0.0000
101.9900 0.0000
102.0000 0.9757
102.0100 0.0000
102.0200 0.6651
102.0300 0.0251
102.0400 0.4928
102.0500 0.9061
102.0600 0.0000
102.0700 0.0000
102.0800 0.0000
102.0900 0.6761
102.1000 0.3774
102.1100 0.0000
102.1200 0.0000
102.1300 0.0393
102.1400 2.9733
102.1500 1.0405
102.1600 2.6401
102.1700 1.5168
102.1800 0.0000
102.1900 0.0000
102.2000 0.0000
102.2100 0.7543
102.2200 0.2196
102.2300 0.0000
102.2400 0.0000
102.2500 0.0000
102.2600 0.2454
102.2700 1.7719
102.2800 0.4386
102.2900 0.5691
102.3000 0.6095
102.3100 1.3204
102.3200 0.0000
102.3300 0.0000
102.3400 0.0018
102.3500 1.1114
102.3600 1.0092
102.3700 0.0000
102.3800 0.0000
102.3900 1.0114
102.4000 0.0000
102.4100 0.6409
102.4200 0.3267
102.4300 0.0000
102.4400 0.9476
102.4500 0.0945
102.4600 0.9589
102.4700 1.2724
102.4800 1.3990
102.4900 1.3667
102.5000 0.9943
102.5100 0.9480
102.5200 0.9836
102.5300 0.0000
102.5400 1.8847
102.5500 1.0850
102.5600 0.0000
102.5700 0.9917
102.5800 0.0000
102.5900 0.0000
102.6000 0.0000
102.6100 0.0000
102.6200 0.0000
102.6300 1.0138
102.6400 0.9340
102.6500 2.0560
102.6600 0.0726
102.6700 0.9571
102.6800 0.0000
102.6900 0.0000
102.7000 0.0000
102.7100 0.0000
102.7200 0.9573
102.7300 0.0000
102.7400 0.0000
102.7500 0.0000
102.7600 0.0000
102.7700 1.0441
102.7800 1.0270
102.7900 0.0000
102.8000 0.3409
102.8100 2.5719
102.8200 0.0000
102.8300 0.0000
102.8400 1.4338
102.8500 1.3300
102.8600 1.2507
102.8700 0.0000
102.8800 0.0964
102.8900 1.9663
102.9000 0.2789
102.9100 0.6905
102.9200 0.0000
102.9300 0.0000
102.9400 0.0000
102.9500 0.0000
102.9600 0.0000
102.9700 0.0000
102.9800 0.0000
102.9900 0.0000
103.0000 0.0000
103.0100 0.0000
103.0200 0.0000
103.0300 1.0330
103.0400 0.1024
103.0500 0.7679
103.0600 1.2347
103.0700 0.2377
103.0800 0.1422
103.0900 0.0019
103.1000 0.0000
103.1100 0.9721
103.1200 0.9898
103.1300 0.3056
103.1400 0.0000
103.1500 1.2378
103.1600 1.3154
103.1700 0.0000
103.1800 0.9259
103.1900 1.1387
103.2000 1.0727
103.2100 0.0000
103.2200 0.3229
103.2300 1.7668
103.2400 0.0000
103.2500 0.9578
103.2600 0.0000
103.2700 2.8898
103.2800 0.2188
103.2900 0.9104
103.3000 0.0291
103.3100 0.0000
103.3200 0.0000
103.3300 0.0000
103.3400 1.9094
103.3500 0.0000
103.3600 0.0000
103.3700 0.0000
103.3800 0.0000
103.3900 0.0000
103.4000 0.0000
103.4100 1.1661
103.4200 0.9408
103.4300 0.0000
103.4400 0.0000
103.4500 0.0000
103.4600 0.0000
103.4700 0.6546
103.4800 0.3251
103.4900 1.0707
103.5000 0.0000
103.5100 0.0000
103.5200 0.0000
103.5300 1.0043
103.5400 0.0000
103.5500 0.0000
103.5600 0.9829
103.5700 0.6003
103.5800 1.1140
103.5900 2.1562
103.6000 0.2036
103.6100 0.0000
103.6200 1.9694
103.6300 1.0626
103.6400 0.0000
103.6500 0.0000
103.6600 0.9953
103.6700 0.0000
103.6800 0.0000
103.6900 0.0000
103.7000 0.0000
103.7100 0.0000
103.7200 1.0174
103.7300 1.0430
103.7400 0.0000
103.7500 0.0000
103.7600 0.3908
103.7700 2.5677
103.7800 1.0491
103.7900 0.0000
103.8000 0.0000
103.8100 0.0000
103.8200 0.9977
103.8300 0.0000
103.8400 0.0000
103.8500 2.0538
103.8600 1.3146
103.8700 1.0889
103.8800 0.5730
103.8900 0.9344
103.9000 0.9685
103.9100 0.9998
103.9200 1.9766
103.9300 2.1041
103.9400 0.0000
103.9500 0.0000
103.9600 1.0239
103.9700 0.0000
103.9800 0.0000
103.9900 0.0000
104.0000 0.6675
104.0100 1.3520
104.0200 0.8672
104.0300 0.1414
104.0400 1.9556
104.0500 0.0000
104.0600 0.0000
104.0700 1.3145
104.0800 0.6311
104.0900 0.0000
104.1000 1.0409
104.1100 1.0293
104.1200 0.0000
104.1300 0.0000
104.1400 0.0000
104.1500 1.0266
104.1600 0.0000
104.1700 1.3324
104.1800 1.8226
104.1900 0.9995
104.2000 0.0000
104.2100 0.9458
104.2200 0.9927
104.2300 1.0364
104.2400 0.9515
104.2500 1.0427
104.2600 0.0000
104.2700 0.4284
104.2800 1.8182
104.2900 1.6365
104.3000 0.9763
104.3100 0.5922
104.3200 1.4328
104.3300 0.0000
104.3400 0.9831
104.3500 0.0000
104.3600 0.0000
104.3700 0.1628
104.3800 1.8594
104.3900 2.4046
104.4000 0.6801
104.4100 1.6425
104.4200 0.4486
104.4300 0.0000
104.4400 0.0000
104.4500 0.0000
104.4600 1.0451
104.4700 2.0103
104.4800 0.0000
104.4900 0.0000
104.5000 1.3921
104.5100 0.6225
104.5200 0.9950
104.5300 0.0000
104.5400 0.9943
104.5500 0.0000
104.5600 0.0000
104.5700 0.0000
104.5800 0.1461
104.5900 0.8550
104.6000 0.0000
104.6100 0.0000
104.6200 1.5947
104.6300 1.4514
104.6400 0.0000
104.6500 0.0000
104.6600 0.9767
104.6700 0.1072
104.6800 2.3580
104.6900 2.6713
104.7000 0.0000
104.7100 0.7508
104.7200 1.7045
104.7300 0.5044
104.7400 1.6297
104.7500 0.3247
104.7600 1.9782
104.7700 1.8323
104.7800 0.1182
104.7900 1.0961
104.8000 1.1022
104.8100 0.7586
104.8200 0.0000
104.8300 0.0000
104.8400 1.0586
104.8500 0.0000
104.8600 0.7620
104.8700 0.2038
104.8800 1.9220
104.8900 1.0735
104.9000 0.0000
104.9100 0.0000
104.9200 0.0000
104.9300 0.4168
104.9400 0.5099
104.9500 0.0000
104.9600 2.0627
104.9700 0.0000
104.9800 0.0000
104.9900 0.0000
105.0000 0.9662
105.0100 0.0000
105.0200 0.0000
105.0300 0.0000
105.0400 0.4923
105.0500 0.5164
105.0600 2.6235
105.0700 2.0341
105.0800 0.2184
105.0900 0.9944
105.1000 0.1472
105.1100 1.8384
105.1200 0.9649
105.1300 1.0068
105.1400 1.0381
105.1500 0.0000
105.1600 0.0000
105.1700 0.0000
105.1800 0.0000
105.1900 0.0000
105.2000 1.9848
105.2100 0.9966
105.2200 0.0000
105.2300 3.0340
105.2400 0.0000
105.2500 1.0300
105.2600 0.5250
105.2700 2.0582
105.2800 0.3333
105.2900 1.0127
105.3000 0.0000
105.3100 0.0000
105.3200 0.0000
105.3300 0.0000
105.3400 2.3209
105.3500 0.6623
105.3600 1.0139
105.3700 1.2088
105.3800 1.4831
105.3900 1.5768
105.4000 1.0118
105.4100 0.6436
105.4200 0.0000
105.4300 0.0000
105.4400 0.0000
105.4500 0.0000
105.4600 0.0000
105.4700 0.0000
105.4800 0.0000
105.4900 1.0298
105.5000 0.0000
105.5100 1.9197
105.5200 0.1134
105.5300 1.9724
105.5400 0.0000
105.5500 0.9958
105.5600 0.4209
105.5700 0.6404
105.5800 0.6233
105.5900 0.4415
105.6000 0.0000
105.6100 1.7193
105.6200 1.2840
105.6300 0.1114
105.6400 1.8319
105.6500 0.0000
105.6600 0.3363
105.6700 1.0788
105.6800 0.5554
105.6900 1.0189
105.7000 0.0000
105.7100 0.0000
105.7200 0.0000
105.7300 0.0000
105.7400 0.0953
105.7500 0.9006
105.7600 1.2911
105.7700 0.6942
105.7800 0.0000
105.7900 0.5567
105.8000 1.7575
105.8100 0.6807
105.8200 0.0000
105.8300 0.9297
105.8400 0.0946
105.8500 2.0745
105.8600 1.7998
105.8700 0.9269
105.8800 0.0000
105.8900 0.0000
105.9000 1.0492
105.9100 0.0000
105.9200 0.0000
105.9300 0.8840
105.9400 0.1102
105.9500 0.0000
105.9600 0.0000
105.9700 0.0000
105.9800 0.0000
105.9900 0.0000
106.0000 0.0000
106.0100 0.0000
106.0200 0.0000
106.0300 0.0000
106.0400 0.9091
106.0500 1.0296
106.0600 0.1086
106.0700 0.8256
106.0800 0.0000
106.0900 0.0000
106.1000 0.0000
106.1100 0.0000
106.1200 0.6656
106.1300 1.0538
106.1400 1.1596
106.1500 1.1025
106.1600 2.0497
106.1700 1.2175
106.1800 1.7936
106.1900 0.0000
106.2000 0.0000
106.2100 0.5263
106.2200 0.4626
106.2300 0.0000
106.2400 0.0000
106.2500 0.0000
106.2600 0.0000
106.2700 0.0000
106.2800 0.1905
106.2900 1.0721
106.3000 1.0599
106.3100 0.6112
106.3200 1.1318
106.3300 0.8519
106.3400 1.0024
106.3500 0.9592
106.3600 0.0000
106.3700 0.0429
106.3800 0.9652
106.3900 0.0000
106.4000 0.0000
106.4100 0.3959
106.4200 0.5465
106.4300 0.6017
106.4400 0.3865
106.4500 0.0000
106.4600 0.0000
106.4700 1.0178
106.4800 0.0871
106.4900 0.9896
106.5000 0.2579
106.5100 1.6289
106.5200 0.0000
106.5300 0.0000
106.5400 0.0000
106.5500 0.0000
106.5600 0.0000
106.5700 0.9045
106.5800 0.0677
106.5900 0.0000
106.6000 0.0000
106.6100 0.0000
106.6200 0.8073
106.6300 2.2039
106.6400 0.0000
106.6500 0.0000
106.6600 0.0000
106.6700 0.0000
106.6800 0.9574
106.6900 0.9707
106.7000 0.9410
106.7100 0.4939
106.7200 2.4714
106.7300 0.0000
106.7400 1.0246
106.7500 0.6113
106.7600 1.3747
106.7700 0.0000
106.7800 0.0000
106.7900 3.0036
106.8000 2.0711
106.8100 0.0000
106.8200 0.5814
106.8300 1.4217
106.8400 0.9746
106.8500 0.5631
106.8600 0.4189
106.8700 0.0000
106.8800 0.0000
106.8900 1.0481
106.9000 0.0000
106.9100 2.2249
106.9200 0.9118
106.9300 0.3289
106.9400 0.6720
106.9500 0.9719
106.9600 0.0000
106.9700 0.0000
106.9800 0.9604
106.9900 0.0000
107.0000 0.0000
107.0100 0.0000
107.0200 0.3467
107.0300 3.1168
107.0400 1.8183
107.0500 0.6260
107.0600 1.0082
107.0700 1.6104
107.0800 3.0280
107.0900 0.2518
107.1000 0.0000
107.1100 0.0000
107.1200 0.0000
107.1300 0.0000
107.1400 0.0000
107.1500 0.8110
107.1600 2.2698
107.1700 0.5891
107.1800 1.3802
107.1900 0.0000
107.2000 0.8807
107.2100 0.1232
107.2200 0.0691
107.2300 0.9767
107.2400 0.9787
107.2500 0.0000
107.2600 0.0000
107.2700 0.0000
107.2800 0.0000
107.2900 0.0000
107.3000 0.9125
107.3100 1.1524
107.3200 0.9419
107.3300 1.0078
107.3400 0.0000
107.3500 0.0000
107.3600 0.3755
107.3700 0.5934
107.3800 1.5630
107.3900 0.4302
107.4000 0.0000
107.4100 0.0000
107.4200 0.0000
107.4300 1.9771
107.4400 0.9849
107.4500 0.2424
107.4600 1.1036
107.4700 0.6529
107.4800 0.0000
107.4900 0.0000
107.5000 0.0000
107.5100 0.0000
107.5200 0.9133
107.5300 0.1039
107.5400 0.0000
107.5500 1.0374
107.5600 0.2659
107.5700 2.6097
107.5800 0.0000
107.5900 1.5839
107.6000 0.4429
107.6100 0.0000
107.6200 2.6916
107.6300 1.2645
107.6400 0.1275
107.6500 2.0943
107.6600 6.3423
107.6700 1.6089
107.6800 0.0000
107.6900 0.0000
107.7000 2.9085
107.7100 1.6098
107.7200 0.2968
107.7300 0.9305
107.7400 1.9405
107.7500 3.9260
107.7600 0.9086
107.7700 0.0000
107.7800 0.3595
107.7900 2.0982
107.8000 1.4993
107.8100 1.2316
107.8200 2.0107
107.8300 1.2689
107.8400 0.3065
107.8500 1.9524
107.8600 2.0816
107.8700 1.1935
107.8800 1.7832
107.8900 0.3748
107.9000 0.5851
107.9100 0.0000
107.9200 0.0000
107.9300 0.0000
107.9400 0.9858
107.9500 2.0510
107.9600 0.0000
107.9700 0.0000
107.9800 0.0000
107.9900 0.0000
108.0000 0.4148
108.0100 1.0517
108.0200 2.3849
108.0300 0.0000
108.0400 0.8066
108.0500 0.1937
108.0600 0.0000
108.0700 0.9666
108.0800 1.0120
108.0900 0.2898
108.1000 2.1391
108.1100 0.6200
108.1200 1.0942
108.1300 1.8522
108.1400 0.0000
108.1500 0.9352
108.1600 0.9662
108.1700 0.9627
108.1800 0.0000
108.1900 0.0000
108.2000 0.3104
108.2100 0.6698
108.2200 0.0000
108.2300 0.5739
108.2400 2.0619
108.2500 2.0693
108.2600 0.2037
108.2700 0.0000
108.2800 0.0000
108.2900 0.0000
108.3000 0.0000
108.3100 0.0000
108.3200 0.0000
108.3300 0.0000
108.3400 0.0000
108.3500 0.6880
108.3600 1.2714
108.3700 0.9859
108.3800 0.0000
108.3900 0.1043
108.4000 2.8182
108.4100 0.9841
108.4200 0.9971
108.4300 1.6685
108.4400 1.9287
108.4500 0.4057
108.4600 0.0000
108.4700 0.8718
108.4800 1.1136
108.4900 2.0380
108.5000 0.0000
108.5100 0.0000
108.5200 0.0000
108.5300 0.0000
108.5400 0.0000
108.5500 0.6174
108.5600 0.3776
108.5700 1.0087
108.5800 0.8864
108.5900 0.0945
108.6000 0.9916
108.6100 0.0000
108.6200 0.5479
108.6300 1.4003
108.6400 0.4750
108.6500 0.5355
108.6600 4.0799
108.6700 3.0711
108.6800 3.4705
108.6900 2.3195
108.7000 1.1179
108.7100 0.1302
108.7200 3.8653
108.7300 0.9688
108.7400 0.4020
108.7500 0.5691
108.7600 0.0000
108.7700 0.0000
108.7800 0.0000
108.7900 0.8691
108.8000 2.0921
108.8100 0.0197
108.8200 0.0000
108.8300 0.2619
108.8400 1.4301
108.8500 1.2523
108.8600 0.0000
108.8700 0.0000
108.8800 0.0000
108.8900 0.0000
108.9000 1.0413
108.9100 0.0181
108.9200 0.9507
108.9300 0.0000
108.9400 0.0000
108.9500 1.0883
108.9600 0.0000
108.9700 0.5846
108.9800 0.4146
108.9900 0.0000
109.0000 2.0153
109.0100 0.1369
109.0200 0.0000
109.0300 0.9916
109.0400 0.2325
109.0500 0.7132
109.0600 1.1074
109.0700 0.0000
109.0800 0.1384
109.0900 1.9997
109.1000 0.0000
109.1100 5.0814
109.1200 0.0009
109.1300 0.9746
109.1400 0.1925
109.1500 0.8217
109.1600 0.3980
109.1700 0.6534
109.1800 0.5786
109.1900 0.4412
109.2000 0.0000
109.2100 0.9949
109.2200 0.0000
109.2300 1.9691
109.2400 1.9302
109.2500 0.0000
109.2600 0.0000
109.2700 0.4180
109.2800 1.1382
109.2900 1.1037
109.3000 0.3740
109.3100 0.0000
109.3200 0.0000
109.3300 0.0000
109.3400 0.0000
109.3500 0.0000
109.3600 0.0000
109.3700 0.0000
109.3800 0.4466
109.3900 0.5345
109.4000 0.6672
109.4100 0.3688
109.4200 0.0000
109.4300 0.0000
109.4400 1.0501
109.4500 0.9744
109.4600 0.2114
109.4700 2.7502
109.4800 0.0000
109.4900 1.4909
109.5000 0.4853
109.5100 0.0000
109.5200 0.7594
109.5300 0.2183
109.5400 0.9410
109.5500 2.0592
109.5600 0.0000
109.5700 0.0000
109.5800 0.9632
109.5900 0.0000
109.6000 0.0000
109.6100 0.0000
109.6200 0.0000
109.6300 0.0000
109.6400 0.0000
109.6500 0.0000
109.6600 0.0987
109.6700 0.9055
109.6800 0.0000
109.6900 0.3830
109.7000 0.6211
109.7100 0.5536
109.7200 0.4172
109.7300 0.7718
109.7400 0.2450
109.7500 0.9520
109.7600 0.0000
109.7700 0.0000
109.7800 1.0211
109.7900 0.0000
109.8000 0.0000
109.8100 1.0228
109.8200 0.0000
109.8300 0.0000
109.8400 0.0000
109.8500 0.0000
109.8600 0.0000
109.8700 0.0000
109.8800 0.0000
109.8900 0.0000
109.9000 0.3744
109.9100 0.6549
109.9200 0.0000
109.9300 1.7090
109.9400 2.0538
109.9500 0.2499
109.9600 0.0000
109.9700 0.0238
109.9800 2.0411
109.9900 0.0000
110.0000 0.0000
110.0100 0.0000
110.0200 0.0000
110.0300 0.0000
110.0400 0.0000
110.0500 0.0000
110.0600 0.0000
110.0700 0.9931
110.0800 0.0000
110.0900 0.0000
110.1000 0.5000
110.1100 1.4872
110.1200 0.9566
110.1300 0.0000
110.1400 0.0000
110.1500 3.0864
110.1600 1.6289
110.1700 1.1514
110.1800 1.0119
110.1900 2.1286
110.2000 1.9944
110.2100 0.0000
110.2200 0.3666
110.2300 0.5872
110.2400 0.9857
110.2500 0.0000
110.2600 0.0000
110.2700 0.0000
110.2800 1.0080
110.2900 0.0455
110.3000 0.9639
110.3100 0.0000
110.3200 0.0000
110.3300 1.3781
110.3400 0.5531
110.3500 0.6587
110.3600 1.3825
110.3700 0.0000
110.3800 1.7115
110.3900 0.2015
110.4000 0.9723
110.4100 0.1871
110.4200 0.8650
110.4300 0.9764
110.4400 1.0428
110.4500 0.9896
110.4600 0.0000
110.4700 2.7185
110.4800 0.2500
110.4900 1.0025
110.5000 0.0000
110.5100 0.0000
110.5200 0.0000
110.5300 2.3181
110.5400 0.6873
110.5500 0.0000
110.5600 0.0000
110.5700 0.9938
110.5800 0.0000
110.5900 1.0199
110.6000 0.0000
110.6100 0.0000
110.6200 0.0000
110.6300 4.0826
110.6400 0.0000
110.6500 2.0054
110.6600 0.5309
110.6700 1.4307
110.6800 0.0000
110.6900 2.0483
110.7000 0.9967
110.7100 1.0938
110.7200 0.2019
110.7300 1.9316
110.7400 0.7826
110.7500 0.0000
110.7600 0.0000
110.7700 1.0244
110.7800 0.0000
110.7900 1.4860
110.8000 0.4569
110.8100 1.0740
110.8200 1.0526
110.8300 0.8848
110.8400 0.0000
110.8500 0.9715
110.8600 0.0000
110.8700 0.0000
110.8800 0.6048
110.8900 1.3648
110.9000 1.6074
110.9100 1.2770
110.9200 0.1008
110.9300 0.0000
110.9400 1.1931
110.9500 0.8082
110.9600 0.3823
110.9700 0.6523
110.9800 0.5389
110.9900 1.4235
111.0000 1.9393
111.0100 0.0000
111.0200 0.0000
111.0300 0.0000
111.0400 0.0000
111.0500 0.0000
111.0600 0.3109
111.0700 0.6808
111.0800 0.0000
111.0900 0.0000
111.1000 0.9579
111.1100 0.7974
111.1200 0.2178
111.1300 0.9223
111.1400 0.0244
111.1500 0.0000
111.1600 0.0000
111.1700 0.0000
111.1800 0.9906
111.1900 0.5178
111.2000 0.4401
111.2100 0.0000
111.2200 0.0000
111.2300 0.0000
111.2400 0.0000
111.2500 0.0000
111.2600 0.9755
111.2700 0.0000
111.2800 0.0000
111.2900 0.0000
111.3000 0.5899
111.3100 1.0565
111.3200 0.3044
111.3300 0.8678
111.3400 2.0769
111.3500 1.0711
111.3600 0.1386
111.3700 1.0514
111.3800 2.0380
111.3900 0.6802
111.4000 0.0000
111.4100 0.5906
111.4200 1.7761
111.4300 0.5712
111.4400 1.0526
111.4500 0.0000
111.4600 0.0869
111.4700 0.8863
111.4800 0.5619
111.4900 1.4592
111.5000 0.9144
111.5100 2.0349
111.5200 0.0000
111.5300 0.0000
111.5400 0.0000
111.5500 0.0000
111.5600 1.8989
111.5700 0.0000
111.5800 1.2399
111.5900 0.8133
111.6000 0.0000
111.6100 0.9693
111.6200 1.1674
111.6300 1.8663
111.6400 0.0000
111.6500 0.0000
111.6600 1.0143
111.6700 0.0000
111.6800 1.1544
111.6900 0.8200
111.7000 0.0000
111.7100 0.0000
111.7200 0.0000
111.7300 0.0000
111.7400 0.0000
111.7500 2.7084
111.7600 0.1663
111.7700 2.0064
111.7800 0.0000
111.7900 0.0000
111.8000 0.0000
111.8100 0.0000
111.8200 0.9827
111.8300 0.0000
111.8400 0.0000
111.8500 0.0000
111.8600 0.0000
111.8700 1.9400
111.8800 0.0411
111.8900 0.0000
111.9000 0.0000
111.9100 0.3445
111.9200 0.6777
111.9300 0.5264
111.9400 1.0965
111.9500 0.3808
111.9600 1.3500
111.9700 1.8383
111.9800 1.7153
111.9900 0.0022
112.0000 0.0000
112.0100 0.0000
112.0200 0.0000
112.0300 0.4636
112.0400 1.4981
112.0500 0.0000
112.0600 0.0000
112.0700 0.0000
112.0800 0.0000
112.0900 0.0000
112.1000 1.2041
112.1100 1.7127
112.1200 0.3173
112.1300 0.6765
112.1400 0.0000
112.1500 0.0000
112.1600 0.0000
112.1700 0.7870
112.1800 0.2076
112.1900 1.0120
112.2000 0.0206
112.2100 1.9464
112.2200 0.0000
112.2300 0.0000
112.2400 0.0000
112.2500 0.0000
112.2600 1.3334
112.2700 0.7474
112.2800 0.0000
112.2900 0.0000
112.3000 3.0961
112.3100 0.0000
112.3200 0.0000
112.3300 1.3205
112.3400 0.7770
112.3500 0.0000
112.3600 0.0000
112.3700 0.0000
112.3800 0.0000
112.3900 2.8628
112.4000 0.1328
112.4100 0.0000
112.4200 0.2863
112.4300 1.6083
112.4400 0.9809
112.4500 0.9845
112.4600 0.0000
112.4700 0.9843
112.4800 0.9619
112.4900 0.0000
112.5000 1.0710
112.5100 0.0007
112.5200 1.0954
112.5300 1.8230
112.5400 0.2928
112.5500 0.7387
112.5600 0.9662
112.5700 0.0000
112.5800 0.0000
112.5900 1.9285
112.6000 0.0000
112.6100 0.0000
112.6200 1.0411
112.6300 0.0000
112.6400 0.0000
112.6500 0.0000
112.6600 0.0000
112.6700 0.0000
112.6800 1.6350
112.6900 1.0954
112.7000 0.2960
112.7100 0.0000
112.7200 0.0000
112.7300 0.9675
112.7400 0.0000
112.7500 0.0000
112.7600 0.0000
112.7700 1.3312
112.7800 0.0000
112.7900 0.6487
112.8000 0.7254
112.8100 2.2558
112.8200 0.0000
112.8300 0.0213
112.8400 0.9799
112.8500 0.0000
112.8600 0.9443
112.8700 2.0056
112.8800 0.0000
112.8900 2.0016
112.9000 0.0000
112.9100 1.0447
112.9200 0.0000
112.9300 2.0565
112.9400 0.0592
112.9500 0.9333
112.9600 0.2463
112.9700 1.7332
112.9800 0.9875
112.9900 0.9711
113.0000 0.0000
113.0100 0.0000
113.0200 0.0000
113.0300 0.8974
113.0400 0.0897
113.0500 0.9900
113.0600 0.0000
113.0700 0.0000
113.0800 0.0000
113.0900 0.0000
113.1000 0.9920
113.1100 0.6572
113.1200 1.3273
113.1300 0.9903
113.1400 0.0000
113.1500 0.0398
113.1600 0.9105
113.1700 0.0000
113.1800 1.0030
113.1900 0.4083
113.2000 0.5650
113.2100 0.0000
113.2200 1.0073
113.2300 0.7702
113.2400 0.1961
113.2500 0.0000
113.2600 1.0241
113.2700 1.1099
113.2800 0.9625
113.2900 0.0000
113.3000 0.4549
113.3100 0.5388
113.3200 1.6908
113.3300 0.3540
113.3400 0.9902
113.3500 0.9974
113.3600 0.0243
113.3700 0.9809
113.3800 0.2532
113.3900 0.9357
113.4000 2.9587
113.4100 0.0000
113.4200 0.5611
113.4300 1.4052
113.4400 0.0000
113.4500 1.7899
113.4600 0.1233
113.4700 0.0000
113.4800 1.0648
113.4900 0.0000
113.5000 0.0000
113.5100 1.4093
113.5200 1.0880
113.5300 1.0630
113.5400 1.2973
113.5500 0.9989
113.5600 0.0000
113.5700 0.0000
113.5800 2.0435
113.5900 1.2070
113.6000 0.7838
113.6100 0.3862
113.6200 1.6504
113.6300 0.5472
113.6400 0.4081
113.6500 0.0000
113.6600 0.8515
113.6700 0.1432
113.6800 0.0445
113.6900 0.9500
113.7000 1.9011
113.7100 0.9936
113.7200 0.0000
113.7300 0.9471
113.7400 0.5617
113.7500 0.3574
113.7600 0.8512
113.7700 0.2129
113.7800 1.0062
113.7900 0.0779
113.8000 0.8591
113.8100 1.0516
113.8200 0.9430
113.8300 0.4743
113.8400 0.5552
113.8500 0.6355
113.8600 0.3429
113.8700 0.9947
113.8800 2.9721
113.8900 0.1432
113.9000 0.0000
113.9100 0.2131
113.9200 2.1317
113.9300 0.6611
113.9400 1.9085
113.9500 0.0000
113.9600 0.0000
113.9700 0.0000
113.9800 0.0000
113.9900 0.9674
114.0000 1.0191
114.0100 1.1489
114.0200 0.8570
114.0300 0.0000
114.0400 0.0000
114.0500 0.6015
114.0600 0.5178
114.0700 0.0000
114.0800 0.0000
114.0900 0.0000
114.1000 0.0096
114.1100 1.9853
114.1200 0.9905
114.1300 0.0000
114.1400 0.0000
114.1500 0.0000
114.1600 0.0000
114.1700 0.0000
114.1800 0.0000
114.1900 1.0578
114.2000 0.9758
114.2100 0.0000
114.2200 0.0000
114.2300 2.1890
114.2400 0.0000
114.2500 0.0000
114.2600 0.0000
114.2700 0.0000
114.2800 0.0000
114.2900 0.0000
114.3000 0.9750
114.3100 0.0000
114.3200 1.0418
114.3300 0.9414
114.3400 0.0000
114.3500 1.9628
114.3600 0.0000
114.3700 0.0000
114.3800 0.6522
114.3900 0.3475
114.4000 0.8789
114.4100 0.1659
114.4200 1.9207
114.4300 0.9255
114.4400 0.2403
114.4500 2.2340
114.4600 0.7081
114.4700 0.0000
114.4800 0.0000
114.4900 1.6690
114.5000 1.0704
114.5100 1.1007
114.5200 0.1217
114.5300 0.0000
114.5400 1.2705
114.5500 1.9137
114.5600 0.7145
114.5700 0.0000
114.5800 0.0000
114.5900 0.0000
114.6000 0.0000
114.6100 0.7927
114.6200 1.0910
114.6300 0.0824
114.6400 0.9839
114.6500 0.1964
114.6600 0.7803
114.6700 0.3707
114.6800 0.5803
114.6900 0.5501
114.7000 0.4006
114.7100 1.6684
114.7200 1.6723
114.7300 1.9108
114.7400 0.0431
114.7500 0.1400
114.7600 1.8179
114.7700 3.4452
114.7800 0.7143
114.7900 0.0000
114.8000 0.6132
114.8100 1.3099
114.8200 0.0000
114.8300 0.0000
114.8400 0.0000
114.8500 0.0000
114.8600 0.0000
114.8700 0.0000
114.8800 2.0256
114.8900 0.9543
114.9000 0.0000
114.9100 1.3795
114.9200 0.7256
114.9300 0.9608
114.9400 0.0000
114.9500 2.9646
114.9600 1.0281
114.9700 1.1737
114.9800 1.0629
114.9900 0.6799
115.0000 0.0000
115.0100 1.0413
115.0200 0.0000
115.0300 1.0199
115.0400 0.8731
115.0500 0.1163
115.0600 1.0605
115.0700 0.8888
115.0800 0.2711
115.0900 0.7715
115.1000 1.4391
115.1100 0.0000
115.1200 2.4354
115.1300 0.7272
115.1400 0.6300
115.1500 2.0134
115.1600 0.1733
115.1700 0.1626
115.1800 0.9715
115.1900 0.9948
115.2000 0.0000
115.2100 1.0139
115.2200 0.0000
115.2300 0.6819
115.2400 2.0479
115.2500 0.2285
115.2600 0.9548
115.2700 1.0704
115.2800 0.0000
115.2900 0.0000
115.3000 0.0000
115.3100 0.9663
115.3200 0.0000
115.3300 1.6264
115.3400 0.3749
115.3500 0.0000
115.3600 0.8776
115.3700 1.0578
115.3800 0.0946
115.3900 0.9110
115.4000 0.0000
115.4100 0.0000
115.4200 0.0000
115.4300 0.0000
115.4400 0.9800
115.4500 1.9790
115.4600 0.8197
115.4700 0.1481
115.4800 0.0000
115.4900 0.0000
115.5000 1.0011
115.5100 0.0000
115.5200 0.0000
115.5300 0.5181
115.5400 0.5023
115.5500 0.0000
115.5600 1.8308
115.5700 1.0659
115.5800 1.0916
115.5900 0.0768
115.6000 0.9596
115.6100 0.5633
115.6200 1.5792
115.6300 0.4396
115.6400 0.5336
115.6500 2.6759
115.6600 0.3689
115.6700 1.6578
115.6800 1.3085
115.6900 2.0932
115.7000 1.0367
115.7100 1.0244
115.7200 0.0000
115.7300 0.9738
115.7400 0.0000
115.7500 0.0000
115.7600 0.0000
115.7700 0.0000
115.7800 0.0000
115.7900 0.0000
115.8000 1.0269
115.8100 1.9366
115.8200 0.0000
115.8300 0.3387
115.8400 1.5173
115.8500 3.6403
115.8600 1.0830
115.8700 3.7369
115.8800 1.4410
115.8900 0.2056
115.9000 1.0278
115.9100 1.0400
115.9200 0.0000
115.9300 2.3555
115.9400 0.7059
115.9500 1.4311
115.9600 0.5172
115.9700 0.0000
115.9800 1.7346
115.9900 3.1674
116.0000 0.0000
116.0100 1.0013
116.0200 1.9043
116.0300 0.0000
116.0400 0.3292
116.0500 2.1401
116.0600 2.1255
116.0700 2.4471
116.0800 0.0000
116.0900 0.0000
116.1000 0.0000
116.1100 1.9214
116.1200 1.8578
116.1300 0.9608
116.1400 0.0000
116.1500 1.3617
116.1600 1.0768
116.1700 1.6649
116.1800 1.5695
116.1900 2.9848
116.2000 0.2458
116.2100 3.8448
116.2200 2.2820
116.2300 1.9741
116.2400 0.9786
116.2500 0.0000
116.2600 0.9937
116.2700 0.0000
116.2800 1.0400
116.2900 2.1854
116.3000 1.8323
116.3100 1.0644
116.3200 0.1235
116.3300 0.0000
116.3400 1.0703
116.3500 0.2478
116.3600 2.8007
116.3700 0.9532
116.3800 1.5802
116.3900 0.4543
116.4000 0.0000
116.4100 2.7301
116.4200 1.9954
116.4300 5.3770
116.4400 3.8951
116.4500 0.9916
116.4600 1.5415
116.4700 1.5200
116.4800 0.9760
116.4900 2.0963
116.5000 2.0074
116.5100 2.6973
116.5200 1.9284
116.5300 1.2350
116.5400 0.0413
116.5500 2.0889
116.5600 1.9038
116.5700 1.0432
116.5800 1.4104
116.5900 3.5112
116.6000 1.6474
116.6100 1.0868
116.6200 1.2612
116.6300 0.0000
116.6400 2.0400
116.6500 3.8768
116.6600 0.3449
116.6700 1.6337
116.6800 0.0000
116.6900 0.9677
116.7000 1.0376
116.7100 2.0009
116.7200 1.8830
116.7300 1.3219
116.7400 0.0000
116.7500 0.0000
116.7600 0.0000
116.7700 1.9323
116.7800 2.0049
116.7900 0.8095
116.8000 2.1867
116.8100 1.5849
116.8200 1.4088
116.8300 0.0000
116.8400 3.0131
116.8500 1.8915
116.8600 0.0629
116.8700 1.2890
116.8800 1.8780
116.8900 1.6916
116.9000 0.9834
116.9100 2.4829
116.9200 0.4654
116.9300 1.9643
116.9400 1.0128
116.9500 0.8972
116.9600 0.0868
116.9700 0.1002
116.9800 0.8961
116.9900 0.2819
117.0000 4.3814
117.0100 2.6936
117.0200 0.5354
117.0300 0.0000
117.0400 0.0000
117.0500 0.0000
117.0600 0.9123
117.0700 1.0067
117.0800 1.9347
117.0900 1.0282
117.1000 0.0000
117.1100 0.0000
117.1200 0.0000
117.1300 0.9599
117.1400 1.7469
117.1500 0.2886
117.1600 1.0413
117.1700 0.1234
117.1800 0.0819
117.1900 0.9068
117.2000 0.0000
117.2100 0.0000
117.2200 0.0000
117.2300 1.0635
117.2400 0.6662
117.2500 0.3600
117.2600 0.0000
117.2700 0.0000
117.2800 0.0000
117.2900 1.1150
117.3000 1.8157
117.3100 0.3072
117.3200 1.7304
117.3300 0.4895
117.3400 0.4920
117.3500 1.0047
117.3600 0.0000
117.3700 0.0000
117.3800 0.0000
117.3900 1.0697
117.4000 0.9158
117.4100 0.9883
117.4200 2.0283
117.4300 0.0000
117.4400 0.0000
117.4500 0.0000
117.4600 0.0000
117.4700 0.0000
117.4800 0.0000
117.4900 0.0000
117.5000 0.0000
117.5100 0.2110
117.5200 1.8454
117.5300 0.0000
117.5400 0.4878
117.5500 1.0849
117.5600 1.3690
117.5700 0.7727
117.5800 0.2384
117.5900 2.0195
117.6000 0.0948
117.6100 1.9059
117.6200 0.6965
117.6300 3.2825
117.6400 0.8369
117.6500 1.1325
117.6600 3.1887
117.6700 1.4701
117.6800 2.0231
117.6900 0.1898
117.7000 1.9318
117.7100 0.0169
117.7200 0.9560
117.7300 0.0000
117.7400 0.0000
117.7500 0.4810
117.7600 1.1261
117.7700 0.4511
117.7800 0.0000
117.7900 0.0000
117.8000 0.0000
117.8100 1.0004
117.8200 0.0000
117.8300 1.2308
117.8400 0.7292
117.8500 0.4150
117.8600 1.0791
117.8700 0.4719
117.8800 0.0000
117.8900 0.0000
117.9000 0.8439
117.9100 0.1159
117.9200 0.0000
117.9300 0.9995
117.9400 0.0000
117.9500 0.3463
117.9600 1.6395
117.9700 0.9283
117.9800 0.6457
117.9900 0.3722
118.0000 0.8527
118.0100 2.0684
118.0200 0.0835
118.0300 0.0000
118.0400 0.0000
118.0500 0.0000
118.0600 0.0000
118.0700 0.9508
118.0800 1.0140
118.0900 0.9579
118.1000 0.9842
118.1100 2.5922
118.1200 1.3614
118.1300 1.1558
118.1400 1.9332
118.1500 1.2447
118.1600 1.4514
118.1700 1.3054
118.1800 0.0000
118.1900 0.0000
118.2000 0.0000
118.2100 0.0000
118.2200 1.8925
118.2300 0.0985
118.2400 0.0000
118.2500 0.0000
118.2600 0.0000
118.2700 1.4043
118.2800 0.6312
118.2900 0.0000
118.3000 0.6670
118.3100 0.3513
118.3200 0.0000
118.3300 1.0409
118.3400 0.0000
118.3500 0.9936
118.3600 0.0000
118.3700 0.0000
118.3800 0.4073
118.3900 1.5918
118.4000 0.0000
118.4100 0.0000
118.4200 0.9963
118.4300 0.8604
118.4400 1.0652
118.4500 0.0229
118.4600 0.0000
118.4700 0.5017
118.4800 1.7804
118.4900 0.6385
118.5000 0.9520
118.5100 0.0000
118.5200 0.0000
118.5300 0.9810
118.5400 1.8569
118.5500 2.1150
118.5600 0.0000
118.5700 0.1988
118.5800 1.7286
118.5900 0.9953
118.6000 0.0000
118.6100 0.0000
118.6200 0.7085
118.6300 1.2976
118.6400 0.8854
118.6500 0.1389
118.6600 1.0682
118.6700 0.0000
118.6800 0.0000
118.6900 0.0000
118.7000 0.4024
118.7100 1.5392
118.7200 0.0000
118.7300 0.0000
118.7400 0.0000
118.7500 0.9944
118.7600 0.0000
118.7700 0.1849
118.7800 1.8352
118.7900 0.0000
118.8000 0.0000
118.8100 0.0000
118.8200 0.0000
118.8300 0.6683
118.8400 0.3475
118.8500 1.0687
118.8600 0.9186
118.8700 0.0575
118.8800 1.1360
118.8900 1.0194
118.9000 1.5730
118.9100 1.7913
118.9200 1.6683
118.9300 0.4932
118.9400 0.6797
118.9500 1.2877
118.9600 0.0000
118.9700 0.0000
118.9800 1.0387
118.9900 1.1761
119.0000 2.0249
119.0100 0.7246
119.0200 1.9644
119.0300 0.0000
119.0400 1.9765
119.0500 1.0240
119.0600 1.0261
119.0700 0.0000
119.0800 1.0357
119.0900 0.0000
119.1000 0.0000
119.1100 0.2886
119.1200 1.0525
119.1300 0.5845
119.1400 0.0000
119.1500 0.0000
119.1600 0.0000
119.1700 0.0000
119.1800 0.9462
119.1900 0.9943
119.2000 0.0000
119.2100 0.0822
119.2200 1.2089
119.2300 1.3548
119.2400 2.8239
119.2500 0.4677
119.2600 0.0000
119.2700 1.0077
119.2800 0.0000
119.2900 0.0000
119.3000 0.9627
119.3100 1.0034
119.3200 0.0000
119.3300 0.0000
119.3400 0.0000
119.3500 0.9511
119.3600 0.0000
119.3700 0.0000
119.3800 0.0000
119.3900 1.8572
119.4000 1.0811
119.4100 2.1302
119.4200 0.8370
119.4300 1.0067
119.4400 0.0000
119.4500 0.0000
119.4600 0.0000
119.4700 0.0000
119.4800 0.8111
119.4900 0.2111
119.5000 0.9809
119.5100 0.0000
119.5200 0.0000
119.5300 0.0000
119.5400 0.3545
119.5500 0.6306
119.5600 0.0000
119.5700 1.3394
119.5800 1.7315
119.5900 0.0000
119.6000 0.9734
119.6100 0.0000
119.6200 0.0000
119.6300 0.2095
119.6400 0.7909
119.6500 1.8694
119.6600 0.0000
119.6700 0.5690
119.6800 0.4003
119.6900 0.0000
119.7000 0.0000
119.7100 1.0154
119.7200 0.9637
119.7300 0.0000
119.7400 0.0000
119.7500 0.0000
119.7600 0.0000
119.7700 0.0000
119.7800 0.0000
119.7900 0.6822
119.8000 1.1050
119.8100 1.0935
119.8200 1.0944
119.8300 0.0000
119.8400 0.0000
119.8500 0.0000
119.8600 0.3747
119.8700 2.0235
119.8800 1.1491
119.8900 0.4766
119.9000 0.7441
119.9100 1.2541
119.9200 3.8201
119.9300 0.2143
119.9400 4.0139
119.9500 0.0000
119.9600 1.9600
119.9700 0.0000
119.9800 1.0246
119.9900 0.0000
