#Collected Data-20
#Intensity_unit=counts
#Attenuator_coefficient=1.000000
40.0000 0.0000
40.0100 0.0000
40.0200 0.0000
40.0300 0.0000
40.0400 0.9330
40.0500 0.0759
40.0600 0.0000
40.0700 0.0000
40.0800 0.0000
40.0900 0.0000
40.1000 0.4870
40.1100 0.5046
40.1200 1.0093
40.1300 0.0000
40.1400 0.0000
40.1500 0.0000
40.1600 0.0000
40.1700 0.1458
40.1800 0.8140
40.1900 0.0000
40.2000 0.0000
40.2100 0.0000
40.2200 0.0000
40.2300 0.0000
40.2400 0.0000
40.2500 0.0000
40.2600 0.0000
40.2700 0.0000
40.2800 0.0000
40.2900 0.0000
40.3000 0.0000
40.3100 0.0000
40.3200 0.0000
40.3300 0.0000
40.3400 0.0000
40.3500 0.8965
40.3600 0.1570
40.3700 3.0011
40.3800 1.0135
40.3900 0.9772
40.4000 0.3221
40.4100 1.6144
40.4200 1.0709
40.4300 1.0382
40.4400 0.0000
40.4500 0.9853
40.4600 0.8442
40.4700 0.1051
40.4800 0.0000
40.4900 0.9854
40.5000 0.2873
40.5100 0.7891
40.5200 0.0000
40.5300 1.0200
40.5400 1.0202
40.5500 0.0000
40.5600 0.0000
40.5700 0.0000
40.5800 0.0000
40.5900 0.0000
40.6000 0.0000
40.6100 0.9481
40.6200 2.3822
40.6300 0.6402
40.6400 0.9867
40.6500 0.0000
40.6600 1.7612
40.6700 0.2249
40.6800 0.0000
40.6900 0.0000
40.7000 0.0000
40.7100 0.0000
40.7200 0.0000
40.7300 0.0000
40.7400 0.0000
40.7500 0.0000
40.7600 0.0000
40.7700 0.0000
40.7800 0.0000
40.7900 0.9700
40.8000 0.0000
40.8100 0.0000
40.8200 0.0000
40.8300 0.0000
40.8400 0.0000
40.8500 0.0000
40.8600 1.0124
40.8700 0.9575
40.8800 0.0000
40.8900 0.0000
40.9000 0.0000
40.9100 0.0000
40.9200 0.0000
40.9300 0.0000
40.9400 0.0000
40.9500 0.0000
40.9600 0.0000
40.9700 0.0000
40.9800 0.0000
40.9900 0.0000
41.0000 0.0000
41.0100 0.0000
41.0200 0.0000
41.0300 0.0000
41.0400 0.3601
41.0500 0.6285
41.0600 0.0000
41.0700 0.0000
41.0800 0.0000
41.0900 0.0000
41.1000 0.9161
41.1100 0.0683
41.1200 0.1208
41.1300 1.1101
41.1400 1.8081
41.1500 1.0402
41.1600 0.0000
41.1700 0.5711
41.1800 0.3947
41.1900 0.9758
41.2000 0.8671
41.2100 0.1244
41.2200 0.0000
41.2300 0.0000
41.2400 0.0000
41.2500 0.0000
41.2600 0.0000
41.2700 0.0000
41.2800 1.9522
41.2900 0.0000
41.3000 0.0000
41.3100 0.0000
41.3200 0.0000
41.3300 0.0000
41.3400 0.1914
41.3500 0.7848
41.3600 0.0000
41.3700 0.0000
41.3800 0.0000
41.3900 0.9457
41.4000 0.0000
41.4100 0.0000
41.4200 0.0000
41.4300 0.0000
41.4400 0.0000
41.4500 0.0000
41.4600 0.3244
41.4700 1.6695
41.4800 0.0000
41.4900 1.0304
41.5000 0.0000
41.5100 0.7704
41.5200 0.1917
41.5300 1.9376
41.5400 0.0102
41.5500 0.0000
41.5600 0.2619
41.5700 0.6984
41.5800 0.4628
41.5900 2.1337
41.6000 1.1306
41.6100 0.3514
41.6200 0.0000
41.6300 0.3282
41.6400 1.0031
41.6500 0.6382
41.6600 0.0000
41.6700 0.0000
41.6800 0.0000
41.6900 0.0000
41.7000 0.0000
41.7100 1.1712
41.7200 0.9615
41.7300 0.0000
41.7400 0.0000
41.7500 1.0306
41.7600 0.0000
41.7700 0.0000
41.7800 0.0000
41.7900 1.3099
41.8000 3.3101
41.8100 0.4625
41.8200 1.9470
41.8300 0.0000
41.8400 0.0000
41.8500 0.0101
41.8600 1.9888
41.8700 0.1943
41.8800 0.7822
41.8900 0.3801
41.9000 0.6003
41.9100 0.0000
41.9200 0.0000
41.9300 0.0000
41.9400 0.0000
41.9500 0.0000
41.9600 0.0484
41.9700 2.0913
41.9800 0.9250
41.9900 0.0000
42.0000 0.0000
42.0100 0.9779
42.0200 0.0000
42.0300 0.0000
42.0400 0.0000
42.0500 0.0000
42.0600 0.0000
42.0700 0.9646
42.0800 0.1788
42.0900 0.8077
42.1000 0.0000
42.1100 0.4811
42.1200 1.6255
42.1300 0.0000
42.1400 0.0000
42.1500 0.9894
42.1600 0.0000
42.1700 0.0000
42.1800 0.0000
42.1900 0.0000
42.2000 0.3117
42.2100 0.6812
42.2200 0.4852
42.2300 1.0770
42.2400 1.1149
42.2500 0.3176
42.2600 0.0000
42.2700 0.0000
42.2800 0.0000
42.2900 0.0000
42.3000 0.0000
42.3100 0.0000
42.3200 0.0000
42.3300 0.0000
42.3400 0.6493
42.3500 1.8625
42.3600 0.5515
42.3700 0.0000
42.3800 0.0000
42.3900 0.0000
42.4000 0.0000
42.4100 0.0000
42.4200 0.0000
42.4300 0.0000
42.4400 0.0000
42.4500 0.0000
42.4600 1.0347
42.4700 0.0000
42.4800 0.0000
42.4900 0.0000
42.5000 0.0000
42.5100 0.0000
42.5200 0.0000
42.5300 0.0000
42.5400 0.0000
42.5500 0.0000
42.5600 0.0000
42.5700 0.0000
42.5800 0.0000
42.5900 0.0000
42.6000 0.0000
42.6100 0.0000
42.6200 0.9646
42.6300 0.0000
42.6400 0.0000
42.6500 1.0089
42.6600 1.9929
42.6700 0.0000
42.6800 0.0000
42.6900 0.0000
42.7000 0.0000
42.7100 0.0000
42.7200 0.0000
42.7300 0.0000
42.7400 0.0000
42.7500 1.0395
42.7600 1.0258
42.7700 0.0000
42.7800 0.0000
42.7900 0.9150
42.8000 0.1210
42.8100 0.9520
42.8200 0.0000
42.8300 0.0000
42.8400 0.0000
42.8500 0.0000
42.8600 0.0000
42.8700 0.0000
42.8800 0.0000
42.8900 0.0000
42.9000 0.0000
42.9100 0.0000
42.9200 0.0000
42.9300 0.0000
42.9400 0.0000
42.9500 0.0000
42.9600 0.0000
42.9700 0.0000
42.9800 0.0000
42.9900 0.0000
43.0000 0.8372
43.0100 0.1301
43.0200 1.0026
43.0300 0.9092
43.0400 0.9526
43.0500 0.0000
43.0600 0.9717
43.0700 0.0000
43.0800 1.0364
43.0900 0.0000
43.1000 0.0000
43.1100 0.9045
43.1200 0.0962
43.1300 0.0000
43.1400 0.0000
43.1500 0.0000
43.1600 0.0000
43.1700 1.0041
43.1800 1.1313
43.1900 1.6703
43.2000 1.0779
43.2100 0.2388
43.2200 0.0000
43.2300 3.1146
43.2400 0.0000
43.2500 0.0000
43.2600 0.0000
43.2700 0.0000
43.2800 0.0000
43.2900 0.6025
43.3000 1.1118
43.3100 0.3103
43.3200 0.0000
43.3300 0.9785
43.3400 1.0143
43.3500 0.0000
43.3600 0.0000
43.3700 0.0000
43.3800 0.0000
43.3900 0.5313
43.4000 0.4402
43.4100 0.0000
43.4200 0.0000
43.4300 0.0000
43.4400 0.0000
43.4500 0.0000
43.4600 0.0000
43.4700 0.9751
43.4800 0.0000
43.4900 0.0000
43.5000 0.0000
43.5100 0.0000
43.5200 0.0000
43.5300 0.0000
43.5400 0.0000
43.5500 0.0000
43.5600 0.0000
43.5700 0.9580
43.5800 0.3411
43.5900 0.6611
43.6000 0.5553
43.6100 0.4941
43.6200 0.0000
43.6300 0.0000
43.6400 0.0000
43.6500 0.0000
43.6600 0.0000
43.6700 0.0000
43.6800 0.0000
43.6900 0.0000
43.7000 0.9771
43.7100 0.0000
43.7200 0.7441
43.7300 0.0000
43.7400 0.0000
43.7500 0.0000
43.7600 0.0000
43.7700 0.9950
43.7800 0.0000
43.7900 0.0000
43.8000 0.0000
43.8100 0.4883
43.8200 0.4665
43.8300 0.6900
43.8400 2.1820
43.8500 0.2042
43.8600 0.0000
43.8700 0.0000
43.8800 0.0000
43.8900 0.0000
43.9000 0.0000
43.9100 0.0000
43.9200 0.5215
43.9300 0.4270
43.9400 0.0000
43.9500 0.0000
43.9600 0.0000
43.9700 0.0000
43.9800 0.0000
43.9900 0.0000
44.0000 0.0000
44.0100 0.0000
44.0200 0.0000
44.0300 1.0402
44.0400 0.0000
44.0500 0.0000
44.0600 0.0000
44.0700 0.0000
44.0800 0.0000
44.0900 0.0000
44.1000 1.0125
44.1100 0.0000
44.1200 0.0000
44.1300 0.9682
44.1400 0.0000
44.1500 0.0000
44.1600 0.0000
44.1700 0.0000
44.1800 0.0000
44.1900 1.0043
44.2000 0.0000
44.2100 0.0000
44.2200 0.0000
44.2300 0.0000
44.2400 0.0000
44.2500 0.0000
44.2600 0.0000
44.2700 0.9391
44.2800 0.0000
44.2900 0.0000
44.3000 0.0000
44.3100 0.0000
44.3200 0.0000
44.3300 0.0000
44.3400 0.0000
44.3500 0.0000
44.3600 0.7453
44.3700 0.3147
44.3800 1.7922
44.3900 1.1329
44.4000 0.0000
44.4100 0.0000
44.4200 0.0000
44.4300 0.0000
44.4400 0.0000
44.4500 0.0000
44.4600 0.0000
44.4700 0.0000
44.4800 0.0000
44.4900 0.0000
44.5000 0.0000
44.5100 0.0000
44.5200 0.0000
44.5300 0.0000
44.5400 0.0000
44.5500 2.0256
44.5600 0.0000
44.5700 0.9999
44.5800 0.0000
44.5900 1.1198
44.6000 0.0000
44.6100 2.0724
44.6200 0.3143
44.6300 1.6825
44.6400 0.0000
44.6500 0.0000
44.6600 0.0000
44.6700 0.0000
44.6800 0.0000
44.6900 0.0000
44.7000 0.0000
44.7100 0.0000
44.7200 0.1003
44.7300 0.8893
44.7400 0.0000
44.7500 0.0000
44.7600 0.0000
44.7700 0.0000
44.7800 0.6511
44.7900 0.3240
44.8000 0.0000
44.8100 0.0000
44.8200 0.0000
44.8300 0.0000
44.8400 0.0000
44.8500 0.0000
44.8600 0.0000
44.8700 0.5512
44.8800 0.5144
44.8900 0.0000
44.9000 0.0000
44.9100 0.0000
44.9200 0.9873
44.9300 0.0000
44.9400 0.0000
44.9500 0.0000
44.9600 0.0000
44.9700 0.0000
44.9800 0.0000
44.9900 0.0000
45.0000 1.0202
45.0100 0.8055
45.0200 0.1548
45.0300 0.9880
45.0400 0.0000
45.0500 0.0000
45.0600 0.0000
45.0700 0.0000
45.0800 0.0000
45.0900 0.0000
45.1000 0.6635
45.1100 0.3005
45.1200 0.0000
45.1300 0.0000
45.1400 0.0000
45.1500 0.1479
45.1600 0.7747
45.1700 0.0000
45.1800 0.0000
45.1900 0.0000
45.2000 0.0000
45.2100 0.0000
45.2200 0.0000
45.2300 0.0000
45.2400 0.9646
45.2500 0.0000
45.2600 0.0000
45.2700 0.0000
45.2800 0.0000
45.2900 0.0000
45.3000 0.9968
45.3100 0.0000
45.3200 0.0000
45.3300 0.0000
45.3400 1.0110
45.3500 1.0753
45.3600 0.0000
45.3700 0.0000
45.3800 0.0000
45.3900 0.4311
45.4000 0.5815
45.4100 0.0000
45.4200 0.0000
45.4300 1.0714
45.4400 0.0000
45.4500 0.0000
45.4600 0.0000
45.4700 0.0000
45.4800 0.0000
45.4900 0.0000
45.5000 1.0922
45.5100 0.0000
45.5200 1.0344
45.5300 0.0000
45.5400 0.0000
45.5500 0.0000
45.5600 0.0000
45.5700 0.0000
45.5800 0.0000
45.5900 0.0000
45.6000 0.0000
45.6100 0.0000
45.6200 0.0000
45.6300 0.0000
45.6400 0.0000
45.6500 0.0000
45.6600 1.0252
45.6700 0.9879
45.6800 0.0000
45.6900 0.0000
45.7000 0.0000
45.7100 0.0000
45.7200 0.0000
45.7300 0.0000
45.7400 0.0000
45.7500 0.0000
45.7600 0.0000
45.7700 1.0349
45.7800 0.0000
45.7900 1.1792
45.8000 0.7603
45.8100 0.0000
45.8200 0.0000
45.8300 0.0000
45.8400 1.0378
45.8500 0.0000
45.8600 0.0000
45.8700 0.0000
45.8800 0.0000
45.8900 0.9900
45.9000 0.0000
45.9100 0.0000
45.9200 0.0000
45.9300 0.0000
45.9400 0.0000
45.9500 0.0000
45.9600 0.0000
45.9700 0.0000
45.9800 0.0000
45.9900 0.9774
46.0000 0.0000
46.0100 0.5368
46.0200 2.3838
46.0300 0.9688
46.0400 0.0000
46.0500 0.0000
46.0600 0.0000
46.0700 0.9709
46.0800 0.0000
46.0900 0.0000
46.1000 0.0000
46.1100 0.0000
46.1200 0.0000
46.1300 0.0000
46.1400 0.0000
46.1500 0.0000
46.1600 0.7149
46.1700 0.3151
46.1800 0.0000
46.1900 1.0583
46.2000 2.0110
46.2100 0.9033
46.2200 0.5133
46.2300 1.4571
46.2400 0.0000
46.2500 0.0000
46.2600 1.2566
46.2700 0.7128
46.2800 0.0000
46.2900 0.0000
46.3000 0.0000
46.3100 0.0000
46.3200 0.0000
46.3300 0.0000
46.3400 0.0000
46.3500 1.9555
46.3600 0.0000
46.3700 0.0000
46.3800 0.0000
46.3900 0.8833
46.4000 0.1376
46.4100 0.9851
46.4200 0.4571
46.4300 2.8621
46.4400 0.7432
46.4500 0.0000
46.4600 0.0000
46.4700 0.0000
46.4800 0.0000
46.4900 0.0000
46.5000 0.0000
46.5100 0.0000
46.5200 0.0000
46.5300 0.0000
46.5400 0.0000
46.5500 0.0000
46.5600 0.0000
46.5700 0.0000
46.5800 0.0000
46.5900 0.0000
46.6000 0.0000
46.6100 0.0000
46.6200 0.0000
46.6300 0.0000
46.6400 0.0000
46.6500 0.0000
46.6600 0.0000
46.6700 0.0000
46.6800 0.0000
46.6900 0.0000
46.7000 0.0000
46.7100 0.0000
46.7200 0.0000
46.7300 0.0000
46.7400 0.0000
46.7500 0.0000
46.7600 0.0000
46.7700 0.0000
46.7800 0.0000
46.7900 0.0000
46.8000 0.0000
46.8100 0.0000
46.8200 0.0000
46.8300 0.0000
46.8400 0.0000
46.8500 0.0000
46.8600 0.0000
46.8700 0.0000
46.8800 0.0000
46.8900 0.0000
46.9000 0.0000
46.9100 0.0000
46.9200 0.0000
46.9300 0.0000
46.9400 0.0000
46.9500 0.0000
46.9600 0.0000
46.9700 0.0000
46.9800 0.0000
46.9900 0.0000
47.0000 0.6066
47.0100 0.3667
47.0200 0.0000
47.0300 0.9852
47.0400 0.0000
47.0500 0.0000
47.0600 0.0000
47.0700 0.9880
47.0800 0.0000
47.0900 0.0000
47.1000 0.0000
47.1100 0.0000
47.1200 0.0000
47.1300 0.0000
47.1400 0.0000
47.1500 0.0000
47.1600 0.0000
47.1700 0.0000
47.1800 0.0000
47.1900 0.0000
47.2000 0.0000
47.2100 0.0000
47.2200 0.0000
47.2300 0.0000
47.2400 0.0000
47.2500 0.0000
47.2600 0.0000
47.2700 0.0000
47.2800 0.0000
47.2900 0.0000
47.3000 0.0000
47.3100 0.0000
47.3200 0.0000
47.3300 0.7170
47.3400 0.2542
47.3500 0.0000
47.3600 0.0000
47.3700 0.0000
47.3800 1.0124
47.3900 0.0000
47.4000 0.0000
47.4100 0.0000
47.4200 0.9778
47.4300 0.0000
47.4400 0.0000
47.4500 0.8300
47.4600 0.1229
47.4700 0.0000
47.4800 0.0000
47.4900 0.0000
47.5000 0.0000
47.5100 0.0000
47.5200 0.0000
47.5300 0.0000
47.5400 0.7025
47.5500 0.2725
47.5600 0.9992
47.5700 0.0000
47.5800 0.0000
47.5900 0.0000
47.6000 0.0000
47.6100 0.0000
47.6200 0.0000
47.6300 0.0000
47.6400 0.0000
47.6500 0.0000
47.6600 0.0000
47.6700 0.0000
47.6800 0.0000
47.6900 0.9858
47.7000 0.0000
47.7100 0.0000
47.7200 0.0000
47.7300 0.0000
47.7400 0.0000
47.7500 0.0000
47.7600 0.0000
47.7700 0.0000
47.7800 0.0000
47.7900 0.0813
47.8000 1.9804
47.8100 0.0000
47.8200 0.0000
47.8300 0.0000
47.8400 0.0000
47.8500 0.0000
47.8600 0.0000
47.8700 0.0000
47.8800 0.0000
47.8900 0.9729
47.9000 0.0000
47.9100 0.0000
47.9200 0.0000
47.9300 0.0000
47.9400 0.0000
47.9500 1.0039
47.9600 0.0000
47.9700 0.0000
47.9800 0.0000
47.9900 0.9639
48.0000 0.0914
48.0100 1.2149
48.0200 2.9842
48.0300 1.4761
48.0400 1.3614
48.0500 2.6443
48.0600 1.4429
48.0700 3.6192
48.0800 1.3836
48.0900 0.8987
48.1000 1.0759
48.1100 2.1144
48.1200 1.1296
48.1300 0.0000
48.1400 0.0000
48.1500 0.0000
48.1600 0.0000
48.1700 2.0460
48.1800 0.7800
48.1900 2.2845
48.2000 0.0000
48.2100 1.0078
48.2200 0.0000
48.2300 0.0000
48.2400 0.6502
48.2500 1.3313
48.2600 0.0000
48.2700 0.0000
48.2800 0.0000
48.2900 0.0000
48.3000 0.0000
48.3100 0.0000
48.3200 0.0818
48.3300 0.9001
48.3400 0.0000
48.3500 0.0000
48.3600 0.0000
48.3700 0.0000
48.3800 0.0000
48.3900 0.0000
48.4000 0.0000
48.4100 0.0000
48.4200 0.0000
48.4300 0.0000
48.4400 0.0000
48.4500 0.0000
48.4600 1.0094
48.4700 0.0000
48.4800 0.0000
48.4900 0.0000
48.5000 0.8090
48.5100 0.2250
48.5200 0.0000
48.5300 0.0000
48.5400 0.1671
48.5500 0.8774
48.5600 0.0000
48.5700 0.0000
48.5800 0.0000
48.5900 0.0000
48.6000 0.0000
48.6100 1.0330
48.6200 0.0000
48.6300 0.0000
48.6400 0.0000
48.6500 0.0000
48.6600 0.0000
48.6700 0.0000
48.6800 0.0000
48.6900 0.0000
48.7000 0.0000
48.7100 0.0000
48.7200 0.0000
48.7300 0.0000
48.7400 0.0000
48.7500 0.0000
48.7600 0.2422
48.7700 0.7813
48.7800 0.0000
48.7900 0.0000
48.8000 0.0000
48.8100 0.0000
48.8200 0.0000
48.8300 0.0000
48.8400 0.0000
48.8500 0.0000
48.8600 0.0000
48.8700 0.0000
48.8800 0.0000
48.8900 0.0000
48.9000 0.0000
48.9100 0.0000
48.9200 0.0000
48.9300 0.0000
48.9400 0.0000
48.9500 0.0000
48.9600 0.0000
48.9700 0.0000
48.9800 0.9734
48.9900 0.0000
49.0000 0.0000
49.0100 0.0000
49.0200 0.6562
49.0300 0.2936
49.0400 0.0000
49.0500 0.0000
49.0600 2.0108
49.0700 0.9588
49.0800 0.0000
49.0900 0.0000
49.1000 0.4373
49.1100 0.5430
49.1200 0.0000
49.1300 0.0000
49.1400 0.0000
49.1500 0.0000
49.1600 0.0000
49.1700 0.0000
49.1800 0.0000
49.1900 0.3008
49.2000 0.7167
49.2100 0.0000
49.2200 0.0000
49.2300 2.3826
49.2400 0.6709
49.2500 0.8130
49.2600 0.1302
49.2700 1.0113
49.2800 0.0000
49.2900 0.0000
49.3000 0.0000
49.3100 0.0000
49.3200 0.0000
49.3300 0.0000
49.3400 0.0000
49.3500 4.3329
49.3600 0.5797
49.3700 0.9313
49.3800 0.0050
49.3900 1.1021
49.4000 0.0000
49.4100 5.3250
49.4200 0.6286
49.4300 0.9267
49.4400 0.0000
49.4500 0.0000
49.4600 0.0000
49.4700 1.0743
49.4800 0.0000
49.4900 0.0000
49.5000 0.2783
49.5100 0.9762
49.5200 0.0751
49.5300 0.1078
49.5400 0.5760
49.5500 0.3849
49.5600 0.0000
49.5700 0.0000
49.5800 0.0000
49.5900 1.0886
49.6000 0.0000
49.6100 1.0517
49.6200 0.0000
49.6300 0.0000
49.6400 0.0000
49.6500 0.0000
49.6600 0.0000
49.6700 0.0000
49.6800 0.0000
49.6900 0.0000
49.7000 0.1111
49.7100 1.9155
49.7200 0.0000
49.7300 0.0000
49.7400 0.0000
49.7500 0.5722
49.7600 0.4115
49.7700 0.0000
49.7800 2.0686
49.7900 0.0000
49.8000 0.0000
49.8100 0.0000
49.8200 1.0452
49.8300 0.3413
49.8400 0.6718
49.8500 0.0000
49.8600 0.5946
49.8700 0.3644
49.8800 0.0000
49.8900 0.0000
49.9000 0.9711
49.9100 0.0000
49.9200 0.0000
49.9300 0.0000
49.9400 0.0000
49.9500 0.9997
49.9600 0.0000
49.9700 0.0000
49.9800 0.0000
49.9900 0.7798
50.0000 1.0996
50.0100 0.0595
50.0200 0.1313
50.0300 0.8764
50.0400 0.0000
50.0500 0.4148
50.0600 1.6261
50.0700 0.5719
50.0800 1.4069
50.0900 0.0000
50.1000 1.9826
50.1100 0.0000
50.1200 0.0000
50.1300 0.0000
50.1400 0.0000
50.1500 0.0000
50.1600 0.0000
50.1700 0.0000
50.1800 0.0000
50.1900 0.0000
50.2000 0.0000
50.2100 0.0000
50.2200 0.0000
50.2300 0.0000
50.2400 0.0000
50.2500 0.0000
50.2600 0.3769
50.2700 1.0685
50.2800 0.5128
50.2900 0.6377
50.3000 0.3015
50.3100 0.8679
50.3200 0.1322
50.3300 0.0000
50.3400 0.0000
50.3500 0.0000
50.3600 0.0000
50.3700 0.0000
50.3800 0.0000
50.3900 0.0000
50.4000 0.0000
50.4100 0.0000
50.4200 0.0000
50.4300 0.0000
50.4400 0.0000
50.4500 0.0000
50.4600 0.0000
50.4700 0.0000
50.4800 0.0000
50.4900 0.0000
50.5000 0.0000
50.5100 1.7633
50.5200 0.2368
50.5300 0.0000
50.5400 0.0000
50.5500 0.0000
50.5600 0.0000
50.5700 0.0000
50.5800 0.0000
50.5900 0.0000
50.6000 0.0000
50.6100 0.0000
50.6200 0.0000
50.6300 1.0104
50.6400 0.0000
50.6500 0.0753
50.6600 0.9004
50.6700 0.0000
50.6800 0.0000
50.6900 0.0000
50.7000 0.0000
50.7100 0.0000
50.7200 0.0000
50.7300 0.0000
50.7400 0.0000
50.7500 1.9721
50.7600 0.0000
50.7700 0.0000
50.7800 0.0000
50.7900 0.0000
50.8000 0.0000
50.8100 0.0000
50.8200 0.0000
50.8300 0.0000
50.8400 0.0000
50.8500 0.0000
50.8600 0.0000
50.8700 0.0000
50.8800 0.0000
50.8900 0.0000
50.9000 0.0000
50.9100 0.0000
50.9200 0.0000
50.9300 0.0000
50.9400 0.0000
50.9500 0.9637
50.9600 0.0965
50.9700 0.0000
50.9800 0.0000
50.9900 0.0000
51.0000 0.0000
51.0100 0.0000
51.0200 0.0000
51.0300 0.0000
51.0400 0.0000
51.0500 0.0000
51.0600 0.0000
51.0700 0.0000
51.0800 0.0000
51.0900 0.9944
51.1000 0.0000
51.1100 0.0000
51.1200 0.0000
51.1300 0.0000
51.1400 0.0000
51.1500 0.0000
51.1600 0.0000
51.1700 0.0000
51.1800 0.0000
51.1900 0.0000
51.2000 0.0000
51.2100 0.0000
51.2200 0.0000
51.2300 0.0000
51.2400 0.0000
51.2500 0.0000
51.2600 0.0000
51.2700 0.0000
51.2800 0.0504
51.2900 3.0262
51.3000 0.2181
51.3100 0.8067
51.3200 0.0000
51.3300 0.0709
51.3400 0.6313
51.3500 2.1064
51.3600 1.9444
51.3700 1.5761
51.3800 0.0211
51.3900 1.0157
51.4000 0.0000
51.4100 0.0000
51.4200 0.0000
51.4300 0.6248
51.4400 0.0000
51.4500 1.3235
51.4600 0.0000
51.4700 1.0985
51.4800 0.0000
51.4900 0.0000
51.5000 0.0000
51.5100 0.0000
51.5200 0.0000
51.5300 0.0000
51.5400 0.0000
51.5500 0.5502
51.5600 1.0819
51.5700 0.3351
51.5800 0.0000
51.5900 0.9076
51.6000 0.0475
51.6100 1.0099
51.6200 0.0000
51.6300 0.0000
51.6400 0.0000
51.6500 0.5059
51.6600 0.4733
51.6700 0.7253
51.6800 0.3029
51.6900 0.0000
51.7000 0.0000
51.7100 0.0000
51.7200 0.1739
51.7300 0.8066
51.7400 0.0000
51.7500 0.0000
51.7600 0.0000
51.7700 0.0000
51.7800 0.0000
51.7900 0.0000
51.8000 0.0000
51.8100 0.0000
51.8200 0.0000
51.8300 0.0000
51.8400 0.0000
51.8500 0.0000
51.8600 0.4814
51.8700 0.4836
51.8800 0.0000
51.8900 0.7924
51.9000 0.2208
51.9100 0.0000
51.9200 0.0000
51.9300 0.0000
51.9400 0.0000
51.9500 0.9557
51.9600 0.0000
51.9700 1.9971
51.9800 0.0000
51.9900 0.9739
52.0000 0.0000
52.0100 0.0000
52.0200 0.0000
52.0300 0.0000
52.0400 0.0000
52.0500 0.0000
52.0600 0.0000
52.0700 0.0000
52.0800 0.0000
52.0900 0.0000
52.1000 0.0000
52.1100 0.0000
52.1200 0.0000
52.1300 0.9827
52.1400 0.0000
52.1500 0.0000
52.1600 0.0000
52.1700 0.0000
52.1800 0.0000
52.1900 0.0000
52.2000 0.0000
52.2100 0.0000
52.2200 0.0000
52.2300 0.0000
52.2400 0.0000
52.2500 0.0000
52.2600 0.9477
52.2700 0.0000
52.2800 0.0000
52.2900 0.0000
52.3000 0.0000
52.3100 0.0000
52.3200 0.0000
52.3300 0.0000
52.3400 1.0018
52.3500 0.0000
52.3600 0.0000
52.3700 0.0000
52.3800 0.0000
52.3900 1.0179
52.4000 1.0223
52.4100 0.0000
52.4200 0.0000
52.4300 0.0000
52.4400 0.0000
52.4500 0.0000
52.4600 0.0000
52.4700 0.9624
52.4800 1.1198
52.4900 0.6726
52.5000 0.0000
52.5100 0.9814
52.5200 0.0000
52.5300 0.0000
52.5400 0.0000
52.5500 0.0000
52.5600 0.0000
52.5700 1.9583
52.5800 0.0000
52.5900 1.0151
52.6000 0.0000
52.6100 3.0829
52.6200 0.0000
52.6300 0.0000
52.6400 0.0000
52.6500 3.9834
52.6600 0.0438
52.6700 0.0000
52.6800 0.0000
52.6900 0.0000
52.7000 0.9883
52.7100 0.5115
52.7200 1.5617
52.7300 0.0000
52.7400 0.0000
52.7500 1.0262
52.7600 1.0453
52.7700 0.0864
52.7800 0.8872
52.7900 0.0000
52.8000 1.0167
52.8100 0.0000
52.8200 0.0000
52.8300 0.6687
52.8400 0.3520
52.8500 0.9516
52.8600 0.0000
52.8700 0.0000
52.8800 0.0000
52.8900 0.4317
52.9000 2.9056
52.9100 0.6737
52.9200 0.0000
52.9300 0.0000
52.9400 0.0000
52.9500 0.0000
52.9600 0.0000
52.9700 0.0000
52.9800 0.0000
52.9900 0.0000
53.0000 0.0000
53.0100 0.0000
53.0200 0.8930
53.0300 1.0975
53.0400 0.0000
53.0500 0.0000
53.0600 0.0000
53.0700 0.0000
53.0800 0.0000
53.0900 0.0000
53.1000 1.0469
53.1100 1.0225
53.1200 0.0000
53.1300 0.0000
53.1400 0.0000
53.1500 0.0000
53.1600 0.0000
53.1700 0.0000
53.1800 0.0000
53.1900 0.0000
53.2000 0.0000
53.2100 0.0000
53.2200 0.0000
53.2300 0.0000
53.2400 0.4960
53.2500 0.4482
53.2600 0.0000
53.2700 0.0000
53.2800 0.0000
53.2900 0.0000
53.3000 0.0000
53.3100 0.0000
53.3200 0.0000
53.3300 0.0000
53.3400 0.0000
53.3500 0.0000
53.3600 0.0000
53.3700 0.0000
53.3800 0.0000
53.3900 0.0000
53.4000 0.0000
53.4100 0.0000
53.4200 0.0000
53.4300 0.0000
53.4400 0.0000
53.4500 0.5388
53.4600 0.5227
53.4700 0.0000
53.4800 0.0000
53.4900 0.8695
53.5000 1.1012
53.5100 0.9726
53.5200 0.0000
53.5300 0.0000
53.5400 0.3291
53.5500 0.5924
53.5600 0.0000
53.5700 0.0000
53.5800 0.0000
53.5900 0.0000
53.6000 0.0000
53.6100 0.0000
53.6200 0.1151
53.6300 0.9101
53.6400 0.0000
53.6500 0.0000
53.6600 0.0000
53.6700 0.0000
53.6800 0.0000
53.6900 0.0000
53.7000 0.0000
53.7100 0.0000
53.7200 0.0000
53.7300 0.0000
53.7400 0.0000
53.7500 0.0000
53.7600 0.0000
53.7700 0.0000
53.7800 0.0000
53.7900 0.0000
53.8000 0.0000
53.8100 1.8127
53.8200 1.0897
53.8300 0.0000
53.8400 0.0000
53.8500 0.0000
53.8600 0.0000
53.8700 0.0000
53.8800 0.0000
53.8900 0.9936
53.9000 0.0000
53.9100 0.0000
53.9200 0.0000
53.9300 0.0000
53.9400 0.0000
53.9500 0.0000
53.9600 0.0000
53.9700 0.0000
53.9800 0.0000
53.9900 0.0000
54.0000 0.0000
54.0100 0.0000
54.0200 0.0000
54.0300 0.0000
54.0400 0.0000
54.0500 0.1685
54.0600 1.0868
54.0700 1.1170
54.0800 2.5851
54.0900 0.0000
54.1000 1.0097
54.1100 0.0000
54.1200 0.0000
54.1300 0.0000
54.1400 0.0000
54.1500 0.0000
54.1600 0.9403
54.1700 0.0000
54.1800 0.0000
54.1900 0.0000
54.2000 0.0000
54.2100 0.9908
54.2200 0.0000
54.2300 0.0000
54.2400 0.0000
54.2500 0.9792
54.2600 0.1491
54.2700 0.8219
54.2800 0.0000
54.2900 0.4316
54.3000 1.0750
54.3100 1.0901
54.3200 0.3787
54.3300 0.0000
54.3400 0.0000
54.3500 0.0000
54.3600 0.0000
54.3700 0.0000
54.3800 0.0000
54.3900 0.0000
54.4000 0.0000
54.4100 0.5797
54.4200 1.5570
54.4300 0.9546
54.4400 0.0000
54.4500 0.8983
54.4600 0.0502
54.4700 0.0000
54.4800 0.0000
54.4900 0.0000
54.5000 0.0000
54.5100 0.0000
54.5200 0.0000
54.5300 0.0000
54.5400 0.0000
54.5500 0.0000
54.5600 0.0000
54.5700 0.0000
54.5800 0.0000
54.5900 0.0000
54.6000 1.0702
54.6100 0.4295
54.6200 0.5096
54.6300 0.0000
54.6400 0.0000
54.6500 0.0000
54.6600 0.0000
54.6700 0.0000
54.6800 0.0000
54.6900 0.0000
54.7000 1.0074
54.7100 0.0000
54.7200 0.0000
54.7300 0.0000
54.7400 0.0000
54.7500 0.0000
54.7600 0.0000
54.7700 0.0000
54.7800 0.0000
54.7900 0.0000
54.8000 0.2467
54.8100 0.7368
54.8200 0.0000
54.8300 0.0000
54.8400 0.0000
54.8500 0.0000
54.8600 0.0000
54.8700 0.0000
54.8800 1.0110
54.8900 0.0000
54.9000 0.1929
54.9100 0.7972
54.9200 0.0000
54.9300 1.0504
54.9400 0.0000
54.9500 0.0000
54.9600 0.0000
54.9700 0.0000
54.9800 1.0258
54.9900 0.0541
55.0000 0.0000
55.0100 0.0000
55.0200 0.0000
55.0300 0.0000
55.0400 0.0000
55.0500 0.0000
55.0600 0.0000
55.0700 0.7967
55.0800 0.1998
55.0900 0.0000
55.1000 1.0356
55.1100 0.0000
55.1200 0.0000
55.1300 0.3587
55.1400 1.6374
55.1500 0.0000
55.1600 0.6656
55.1700 1.8296
55.1800 1.3654
55.1900 0.1661
55.2000 0.0000
55.2100 0.0000
55.2200 0.0000
55.2300 0.3167
55.2400 0.7056
55.2500 0.0000
55.2600 0.0000
55.2700 0.0000
55.2800 0.0000
55.2900 0.9743
55.3000 0.0000
55.3100 0.0000
55.3200 0.0000
55.3300 0.0000
55.3400 0.3493
55.3500 0.6541
55.3600 0.9692
55.3700 0.0000
55.3800 0.9545
55.3900 0.0000
55.4000 0.0000
55.4100 1.9849
55.4200 0.0000
55.4300 0.0000
55.4400 0.9612
55.4500 0.0000
55.4600 0.0000
55.4700 0.0000
55.4800 0.0000
55.4900 0.0000
55.5000 0.0000
55.5100 0.9870
55.5200 0.0489
55.5300 0.0000
55.5400 0.0000
55.5500 0.0000
55.5600 1.9840
55.5700 0.0000
55.5800 1.1355
55.5900 0.0000
55.6000 0.0000
55.6100 0.0000
55.6200 0.0000
55.6300 0.0000
55.6400 0.1737
55.6500 0.9622
55.6600 0.3571
55.6700 1.7828
55.6800 0.0000
55.6900 0.0000
55.7000 0.0000
55.7100 0.0000
55.7200 0.0000
55.7300 0.0000
55.7400 0.0000
55.7500 0.2157
55.7600 0.7725
55.7700 0.0000
55.7800 0.0000
55.7900 0.0000
55.8000 0.0000
55.8100 0.0000
55.8200 0.0000
55.8300 0.0000
55.8400 0.0000
55.8500 0.0000
55.8600 0.0000
55.8700 1.1262
55.8800 0.0000
55.8900 0.0000
55.9000 0.0000
55.9100 0.0000
55.9200 0.0000
55.9300 0.0000
55.9400 0.0000
55.9500 0.1014
55.9600 0.8536
55.9700 0.0000
55.9800 0.0000
55.9900 0.0000
56.0000 0.0000
56.0100 0.0000
56.0200 1.0012
56.0300 0.0000
56.0400 1.0248
56.0500 0.0498
56.0600 0.9430
56.0700 0.0000
56.0800 0.3242
56.0900 0.6483
56.1000 0.0000
56.1100 0.0000
56.1200 0.0000
56.1300 0.0000
56.1400 0.0000
56.1500 0.9847
56.1600 0.0059
56.1700 0.0000
56.1800 0.0000
56.1900 0.0000
56.2000 0.0000
56.2100 0.0000
56.2200 0.0000
56.2300 0.0000
56.2400 0.0000
56.2500 0.0000
56.2600 0.0000
56.2700 0.0000
56.2800 0.0000
56.2900 0.0000
56.3000 0.0000
56.3100 0.9846
56.3200 0.0000
56.3300 0.9645
56.3400 0.0000
56.3500 0.0000
56.3600 1.0069
56.3700 2.0853
56.3800 0.8888
56.3900 0.9702
56.4000 0.3534
56.4100 1.6466
56.4200 0.0000
56.4300 4.7793
56.4400 0.3809
56.4500 0.9863
56.4600 0.0000
56.4700 3.0018
56.4800 0.0000
56.4900 0.0000
56.5000 0.0000
56.5100 0.0000
56.5200 0.0000
56.5300 0.0000
56.5400 0.0000
56.5500 0.7398
56.5600 0.2212
56.5700 0.0000
56.5800 0.0000
56.5900 2.1082
56.6000 0.0000
56.6100 0.3200
56.6200 0.6317
56.6300 0.0000
56.6400 0.0000
56.6500 0.7009
56.6600 0.2810
56.6700 0.0000
56.6800 0.0000
56.6900 0.9767
56.7000 0.0000
56.7100 2.0328
56.7200 0.0000
56.7300 5.0309
56.7400 0.0000
56.7500 2.1468
56.7600 0.0000
56.7700 4.1637
56.7800 0.9823
56.7900 3.8764
56.8000 0.1263
56.8100 0.8477
56.8200 0.3128
56.8300 0.6693
56.8400 0.0000
56.8500 0.3207
56.8600 0.0000
56.8700 1.4049
56.8800 0.2024
56.8900 1.0335
56.9000 0.0219
56.9100 0.9996
56.9200 1.3663
56.9300 1.7887
56.9400 0.4599
56.9500 1.5157
56.9600 0.0000
56.9700 1.9360
56.9800 1.0213
56.9900 0.0000
57.0000 0.0000
57.0100 0.0000
57.0200 0.0000
57.0300 0.0000
57.0400 0.0000
57.0500 0.0000
57.0600 0.0000
57.0700 0.0000
57.0800 0.0000
57.0900 0.0000
57.1000 3.0126
57.1100 0.0947
57.1200 0.9198
57.1300 0.0000
57.1400 0.0000
57.1500 0.0000
57.1600 0.0000
57.1700 2.6061
57.1800 1.1185
57.1900 0.3040
57.2000 0.0000
57.2100 0.0000
57.2200 0.0000
57.2300 0.0000
57.2400 0.0000
57.2500 0.3611
57.2600 0.5956
57.2700 0.0000
57.2800 0.0000
57.2900 0.0000
57.3000 1.8560
57.3100 1.0549
57.3200 0.0538
57.3300 0.1314
57.3400 0.8595
57.3500 0.0000
57.3600 0.0000
57.3700 0.0000
57.3800 1.2438
57.3900 1.4958
57.4000 1.0593
57.4100 1.0718
57.4200 1.1082
57.4300 1.0014
57.4400 1.0666
57.4500 1.3068
57.4600 0.7299
57.4700 0.0000
57.4800 0.0000
57.4900 0.0000
57.5000 0.7092
57.5100 0.2527
57.5200 0.0000
57.5300 1.0620
57.5400 0.1161
57.5500 0.8941
57.5600 0.0000
57.5700 0.0000
57.5800 0.0000
57.5900 0.0000
57.6000 0.0000
57.6100 1.0266
57.6200 0.8465
57.6300 2.1479
57.6400 1.0620
57.6500 0.1536
57.6600 0.8490
57.6700 0.0000
57.6800 0.0000
57.6900 0.0000
57.7000 0.0000
57.7100 0.0000
57.7200 0.0000
57.7300 0.0000
57.7400 0.0000
57.7500 0.0000
57.7600 0.0000
57.7700 0.2838
57.7800 0.7087
57.7900 0.0000
57.8000 0.0000
57.8100 0.0000
57.8200 0.9717
57.8300 0.0000
57.8400 0.9345
57.8500 0.9932
57.8600 0.0000
57.8700 0.0000
57.8800 0.0000
57.8900 0.4819
57.9000 0.6691
57.9100 0.0000
57.9200 0.0000
57.9300 0.0000
57.9400 0.0000
57.9500 1.0540
57.9600 0.0902
57.9700 0.8597
57.9800 0.0000
57.9900 0.3742
58.0000 0.6576
58.0100 0.0000
58.0200 0.9910
58.0300 0.7265
58.0400 0.2550
58.0500 0.0000
58.0600 0.0000
58.0700 0.0000
58.0800 0.0000
58.0900 0.0000
58.1000 0.0000
58.1100 0.0000
58.1200 0.5798
58.1300 0.4033
58.1400 0.0000
58.1500 0.0000
58.1600 0.9511
58.1700 0.9534
58.1800 0.0000
58.1900 0.0000
58.2000 0.0000
58.2100 0.0000
58.2200 0.0000
58.2300 0.0000
58.2400 0.0000
58.2500 0.0000
58.2600 0.0000
58.2700 0.0000
58.2800 0.9605
58.2900 0.0000
58.3000 0.0000
58.3100 0.0000
58.3200 0.0000
58.3300 0.0000
58.3400 0.7255
58.3500 0.3631
58.3600 0.0000
58.3700 0.0000
58.3800 1.0794
58.3900 0.0000
58.4000 1.0070
58.4100 0.0000
58.4200 0.0000
58.4300 1.0133
58.4400 0.6328
58.4500 1.3785
58.4600 0.0000
58.4700 0.0000
58.4800 0.0000
58.4900 0.0000
58.5000 1.0144
58.5100 0.0000
58.5200 0.0000
58.5300 0.0000
58.5400 0.0000
58.5500 0.0000
58.5600 0.7396
58.5700 0.2557
58.5800 0.0000
58.5900 0.0000
58.6000 0.0000
58.6100 0.0000
58.6200 1.0607
58.6300 0.0000
58.6400 0.0000
58.6500 0.0000
58.6600 0.0000
58.6700 0.0000
58.6800 0.9856
58.6900 0.0000
58.7000 0.9784
58.7100 0.0000
58.7200 0.0000
58.7300 0.3463
58.7400 0.6493
58.7500 0.0000
58.7600 0.9886
58.7700 0.7298
58.7800 0.2763
58.7900 0.0000
58.8000 0.0000
58.8100 0.0000
58.8200 0.0000
58.8300 0.0000
58.8400 0.0000
58.8500 0.0000
58.8600 0.0000
58.8700 0.0000
58.8800 0.0000
58.8900 0.0000
58.9000 0.0000
58.9100 0.0000
58.9200 0.0000
58.9300 0.0000
58.9400 1.0279
58.9500 1.0605
58.9600 0.0000
58.9700 0.0000
58.9800 1.4267
58.9900 0.5893
59.0000 0.0000
59.0100 0.0000
59.0200 0.0000
59.0300 1.2029
59.0400 0.8532
59.0500 0.0000
59.0600 0.9589
59.0700 0.0000
59.0800 1.0346
59.0900 0.0000
59.1000 0.0000
59.1100 0.0000
59.1200 0.0000
59.1300 0.1210
59.1400 0.8577
59.1500 0.0000
59.1600 0.0000
59.1700 0.0000
59.1800 0.9733
59.1900 0.6539
59.2000 0.2938
59.2100 0.0000
59.2200 0.9782
59.2300 0.0000
59.2400 0.0000
59.2500 0.0000
59.2600 0.0000
59.2700 0.0000
59.2800 0.0000
59.2900 0.0000
59.3000 0.0000
59.3100 0.0000
59.3200 1.0113
59.3300 0.0113
59.3400 1.9536
59.3500 0.0000
59.3600 0.0000
59.3700 0.0000
59.3800 0.0000
59.3900 0.0000
59.4000 0.0000
59.4100 0.9444
59.4200 0.0000
59.4300 0.9073
59.4400 0.0423
59.4500 0.0000
59.4600 0.2446
59.4700 0.7805
59.4800 0.0000
59.4900 0.0000
59.5000 0.5807
59.5100 0.3617
59.5200 0.0000
59.5300 0.0000
59.5400 0.0000
59.5500 0.0858
59.5600 2.8654
59.5700 0.0000
59.5800 1.3457
59.5900 0.6340
59.6000 1.5201
59.6100 1.1172
59.6200 0.3557
59.6300 1.8578
59.6400 1.2340
59.6500 1.0734
59.6600 0.1206
59.6700 1.0627
59.6800 0.8109
59.6900 0.0000
59.7000 0.0000
59.7100 0.9753
59.7200 0.0000
59.7300 0.0000
59.7400 0.8656
59.7500 0.1162
59.7600 0.0000
59.7700 0.0000
59.7800 0.0000
59.7900 0.0000
59.8000 0.0000
59.8100 0.0000
59.8200 0.0000
59.8300 0.0000
59.8400 0.0000
59.8500 0.0000
59.8600 1.0028
59.8700 0.0000
59.8800 0.0000
59.8900 0.0000
59.9000 0.9954
59.9100 1.9752
59.9200 0.0000
59.9300 0.0000
59.9400 0.0000
59.9500 0.8466
59.9600 0.1333
59.9700 0.9496
59.9800 0.9499
59.9900 1.9632
60.0000 0.3383
60.0100 1.6376
60.0200 0.5082
60.0300 0.4603
60.0400 0.0000
60.0500 0.0000
60.0600 0.9480
60.0700 0.0000
60.0800 0.0000
60.0900 0.1922
60.1000 1.3875
60.1100 1.3980
60.1200 0.0000
60.1300 0.0000
60.1400 0.0000
60.1500 0.0000
60.1600 0.0000
60.1700 0.0000
60.1800 1.0037
60.1900 0.0000
60.2000 0.0000
60.2100 1.1231
60.2200 0.0000
60.2300 0.0000
60.2400 0.0000
60.2500 0.0000
60.2600 0.0000
60.2700 0.0000
60.2800 0.0000
60.2900 0.0000
60.3000 0.0000
60.3100 0.0000
60.3200 0.0000
60.3300 0.4491
60.3400 0.5469
60.3500 0.0000
60.3600 0.0000
60.3700 0.0000
60.3800 0.0000
60.3900 0.0000
60.4000 0.0000
60.4100 0.0000
60.4200 0.0000
60.4300 0.0000
60.4400 0.9771
60.4500 1.0474
60.4600 0.0000
60.4700 0.0000
60.4800 0.0000
60.4900 0.9577
60.5000 0.0386
60.5100 0.1495
60.5200 0.8472
60.5300 0.0000
60.5400 0.0000
60.5500 0.5173
60.5600 0.4632
60.5700 0.0000
60.5800 1.0196
60.5900 0.0000
60.6000 0.0000
60.6100 0.9604
60.6200 0.1831
60.6300 2.1717
60.6400 2.0876
60.6500 1.6576
60.6600 0.0000
60.6700 0.6209
60.6800 0.3194
60.6900 0.0000
60.7000 0.0000
60.7100 0.0000
60.7200 0.1437
60.7300 0.9423
60.7400 2.3151
60.7500 1.5131
60.7600 1.1886
60.7700 0.0000
60.7800 0.0000
60.7900 0.0000
60.8000 0.0000
60.8100 0.0000
60.8200 0.9469
60.8300 0.0000
60.8400 0.0000
60.8500 0.0000
60.8600 0.0000
60.8700 1.0304
60.8800 1.4749
60.8900 0.8203
60.9000 0.8311
60.9100 0.1685
60.9200 0.0000
60.9300 0.1173
60.9400 1.1179
60.9500 1.1076
60.9600 0.7035
60.9700 0.0000
60.9800 0.9593
60.9900 0.0000
61.0000 0.0000
61.0100 0.0000
61.0200 0.0000
61.0300 0.0000
61.0400 0.0000
61.0500 0.0000
61.0600 0.0000
61.0700 0.0000
61.0800 0.0000
61.0900 0.0000
61.1000 0.7019
61.1100 0.2739
61.1200 0.9752
61.1300 0.9805
61.1400 0.0000
61.1500 1.0136
61.1600 0.0000
61.1700 0.0000
61.1800 0.0000
61.1900 0.0000
61.2000 0.0000
61.2100 1.0104
61.2200 0.0000
61.2300 1.0320
61.2400 0.0584
61.2500 0.0000
61.2600 0.0000
61.2700 0.0000
61.2800 0.4281
61.2900 2.1042
61.3000 0.4820
61.3100 1.0781
61.3200 0.8025
61.3300 0.2057
61.3400 0.0000
61.3500 0.0790
61.3600 0.9189
61.3700 0.0000
61.3800 1.1343
61.3900 0.9395
61.4000 1.1176
61.4100 0.6501
61.4200 0.3570
61.4300 0.8260
61.4400 1.1419
61.4500 1.0261
61.4600 0.9761
61.4700 0.9746
61.4800 0.0000
61.4900 0.0000
61.5000 0.0000
61.5100 0.0000
61.5200 0.0000
61.5300 1.0145
61.5400 0.0000
61.5500 1.9483
61.5600 0.0000
61.5700 0.0000
61.5800 2.0328
61.5900 0.7206
61.6000 1.3704
61.6100 0.0000
61.6200 0.0000
61.6300 0.0000
61.6400 0.9412
61.6500 0.0000
61.6600 1.0424
61.6700 0.9464
61.6800 0.2060
61.6900 0.8552
61.7000 0.0000
61.7100 0.4717
61.7200 0.5165
61.7300 0.0000
61.7400 0.0000
61.7500 0.9912
61.7600 0.0000
61.7700 1.1795
61.7800 0.2713
61.7900 1.6931
61.8000 0.6362
61.8100 1.3100
61.8200 0.0000
61.8300 0.0000
61.8400 0.0000
61.8500 0.0000
61.8600 0.0000
61.8700 1.0154
61.8800 1.0524
61.8900 0.0000
61.9000 0.5380
61.9100 2.4137
61.9200 0.0000
61.9300 0.0000
61.9400 0.9652
61.9500 0.9699
61.9600 0.0000
61.9700 0.0000
61.9800 1.0326
61.9900 2.9127
62.0000 0.0000
62.0100 5.0210
62.0200 0.0000
62.0300 4.5731
62.0400 1.6471
62.0500 0.7890
62.0600 0.0000
62.0700 1.9715
62.0800 0.0000
62.0900 0.0000
62.1000 0.0000
62.1100 0.0000
62.1200 0.0000
62.1300 0.0000
62.1400 0.0000
62.1500 0.0000
62.1600 0.0000
62.1700 0.0000
62.1800 0.9557
62.1900 0.0000
62.2000 0.0965
62.2100 1.2481
62.2200 1.6493
62.2300 0.0000
62.2400 0.0000
62.2500 0.0000
62.2600 0.0000
62.2700 1.6987
62.2800 2.1789
62.2900 3.0775
62.3000 0.0980
62.3100 0.1363
62.3200 0.8303
62.3300 0.0000
62.3400 0.0000
62.3500 0.0000
62.3600 0.0000
62.3700 0.6734
62.3800 0.2786
62.3900 0.9802
62.4000 0.0000
62.4100 0.0000
62.4200 0.0000
62.4300 0.2833
62.4400 0.7516
62.4500 0.0000
62.4600 0.0000
62.4700 0.0000
62.4800 0.0000
62.4900 0.0000
62.5000 0.0000
62.5100 0.9502
62.5200 0.9074
62.5300 0.0000
62.5400 0.3108
62.5500 0.6852
62.5600 0.4836
62.5700 0.4819
62.5800 1.7062
62.5900 2.1200
62.6000 1.1087
62.6100 0.1242
62.6200 0.9808
62.6300 0.1575
62.6400 0.8172
62.6500 0.0000
62.6600 0.0000
62.6700 0.0000
62.6800 0.0000
62.6900 1.4405
62.7000 0.5383
62.7100 0.0000
62.7200 0.0107
62.7300 0.9480
62.7400 1.0608
62.7500 0.0000
62.7600 0.0000
62.7700 0.9364
62.7800 0.0000
62.7900 0.0000
62.8000 0.0000
62.8100 0.0000
62.8200 0.0000
62.8300 2.0018
62.8400 0.1388
62.8500 0.8256
62.8600 0.0000
62.8700 1.0999
62.8800 0.5661
62.8900 0.3390
62.9000 0.0000
62.9100 0.9867
62.9200 0.0000
62.9300 0.0000
62.9400 0.9601
62.9500 0.9949
62.9600 0.0000
62.9700 0.0000
62.9800 0.0000
62.9900 0.0000
63.0000 0.0000
63.0100 0.0000
63.0200 0.0000
63.0300 0.0000
63.0400 0.0000
63.0500 0.1199
63.0600 0.8300
63.0700 0.0000
63.0800 0.0000
63.0900 0.0000
63.1000 0.0000
63.1100 0.0000
63.1200 0.0000
63.1300 0.0000
63.1400 2.8961
63.1500 1.1096
63.1600 0.0000
63.1700 1.0293
63.1800 0.0000
63.1900 0.0000
63.2000 0.0000
63.2100 0.0000
63.2200 0.0000
63.2300 0.0000
63.2400 1.7770
63.2500 0.1552
63.2600 0.0000
63.2700 0.0000
63.2800 0.0000
63.2900 0.3869
63.3000 1.5541
63.3100 2.1322
63.3200 0.8144
63.3300 0.0000
63.3400 0.0000
63.3500 1.9425
63.3600 0.0851
63.3700 0.1471
63.3800 1.0898
63.3900 0.7397
63.4000 0.0000
63.4100 0.5349
63.4200 0.4851
63.4300 0.0000
63.4400 0.0000
63.4500 0.0000
63.4600 0.0000
63.4700 0.0000
63.4800 1.0036
63.4900 0.2678
63.5000 0.6901
63.5100 0.0000
63.5200 1.1437
63.5300 1.5267
63.5400 0.3329
63.5500 0.0000
63.5600 0.0000
63.5700 0.0000
63.5800 0.0000
63.5900 0.0000
63.6000 0.0000
63.6100 0.0000
63.6200 0.9849
63.6300 0.5827
63.6400 1.3441
63.6500 1.0636
63.6600 0.0000
63.6700 0.0000
63.6800 0.9428
63.6900 0.0000
63.7000 0.9468
63.7100 0.0000
63.7200 0.0000
63.7300 0.0000
63.7400 0.0000
63.7500 0.0000
63.7600 0.0000
63.7700 0.9315
63.7800 0.0782
63.7900 0.1065
63.8000 0.8498
63.8100 0.0000
63.8200 0.0000
63.8300 0.0000
63.8400 0.6090
63.8500 0.4350
63.8600 1.7946
63.8700 1.1840
63.8800 0.0000
63.8900 0.0000
63.9000 0.0000
63.9100 0.0000
63.9200 0.0000
63.9300 0.4252
63.9400 0.5570
63.9500 0.6713
63.9600 1.1271
63.9700 0.2849
63.9800 0.8520
63.9900 2.1165
64.0000 0.0015
64.0100 2.0585
64.0200 0.2724
64.0300 3.0507
64.0400 0.5999
64.0500 0.0000
64.0600 0.6511
64.0700 0.3354
64.0800 0.8884
64.0900 0.1583
64.1000 0.0379
64.1100 1.1003
64.1200 1.0756
64.1300 0.7658
64.1400 1.3929
64.1500 0.5688
64.1600 0.0000
64.1700 0.0000
64.1800 0.0000
64.1900 0.0000
64.2000 0.0000
64.2100 0.0802
64.2200 1.1476
64.2300 1.9379
64.2400 0.0000
64.2500 0.0000
64.2600 1.0052
64.2700 0.0000
64.2800 0.0000
64.2900 0.8486
64.3000 0.1725
64.3100 1.3042
64.3200 1.0089
64.3300 0.6515
64.3400 0.2932
64.3500 0.6744
64.3600 0.4569
64.3700 0.4721
64.3800 0.0000
64.3900 1.1281
64.4000 2.0258
64.4100 0.9853
64.4200 0.1484
64.4300 1.8023
64.4400 1.0445
64.4500 0.0000
64.4600 0.0000
64.4700 0.0000
64.4800 0.6979
64.4900 0.4195
64.5000 0.0000
64.5100 0.0000
64.5200 0.0000
64.5300 1.9188
64.5400 0.1849
64.5500 0.7835
64.5600 1.0039
64.5700 0.0000
64.5800 0.0000
64.5900 0.0000
64.6000 1.9856
64.6100 0.0000
64.6200 1.0318
64.6300 0.0000
64.6400 0.1329
64.6500 1.0806
64.6600 0.7661
64.6700 0.9798
64.6800 0.4955
64.6900 0.4714
64.7000 0.0000
64.7100 0.0000
64.7200 0.0000
64.7300 0.0000
64.7400 1.9981
64.7500 0.9608
64.7600 0.0000
64.7700 0.0000
64.7800 0.0000
64.7900 2.1007
64.8000 0.9100
64.8100 0.6376
64.8200 0.2245
64.8300 0.0000
64.8400 0.0000
64.8500 2.0503
64.8600 1.3146
64.8700 1.9402
64.8800 1.0420
64.8900 0.9504
64.9000 1.2007
64.9100 0.8373
64.9200 0.0000
64.9300 0.0000
64.9400 0.0000
64.9500 2.0919
64.9600 1.0386
64.9700 0.2489
64.9800 1.7515
64.9900 0.4308
65.0000 0.5512
65.0100 0.0000
65.0200 0.9537
65.0300 0.0000
65.0400 1.0014
65.0500 0.9917
65.0600 0.0000
65.0700 0.0000
65.0800 0.3023
65.0900 0.7464
65.1000 0.9351
65.1100 1.0252
65.1200 0.0000
65.1300 0.0000
65.1400 0.8251
65.1500 0.1404
65.1600 0.0445
65.1700 1.2508
65.1800 2.6568
65.1900 0.0000
65.2000 0.0000
65.2100 0.0000
65.2200 0.0000
65.2300 0.0000
65.2400 0.0000
65.2500 0.0000
65.2600 1.9197
65.2700 1.1706
65.2800 0.9398
65.2900 0.2672
65.3000 0.7206
65.3100 0.0000
65.3200 2.4516
65.3300 1.5418
65.3400 1.7326
65.3500 0.2623
65.3600 4.3222
65.3700 0.9910
65.3800 5.1584
65.3900 0.8591
65.4000 1.5737
65.4100 4.2580
65.4200 1.4600
65.4300 1.4771
65.4400 1.9746
65.4500 1.5276
65.4600 1.3866
65.4700 1.0221
65.4800 0.0000
65.4900 1.0239
65.5000 0.5044
65.5100 4.2288
65.5200 1.2581
65.5300 0.5379
65.5400 0.4657
65.5500 1.4404
65.5600 0.5470
65.5700 2.2252
65.5800 2.1231
65.5900 1.6433
65.6000 0.0000
65.6100 0.0000
65.6200 0.9792
65.6300 0.4709
65.6400 0.5103
65.6500 0.0000
65.6600 0.7764
65.6700 0.2410
65.6800 0.9349
65.6900 1.1633
65.7000 1.9258
65.7100 0.0000
65.7200 0.6277
65.7300 1.2774
65.7400 0.9496
65.7500 0.6112
65.7600 0.3864
65.7700 0.0000
65.7800 0.0000
65.7900 0.0000
65.8000 1.0650
65.8100 0.0000
65.8200 1.0073
65.8300 0.0000
65.8400 0.4569
65.8500 3.6629
65.8600 1.5326
65.8700 1.9992
65.8800 0.2356
65.8900 1.0049
65.9000 0.0308
65.9100 1.0463
65.9200 0.4323
65.9300 2.5695
65.9400 0.4216
65.9500 0.6164
65.9600 0.0000
65.9700 0.0000
65.9800 0.0000
65.9900 1.0155
66.0000 0.0000
66.0100 2.0966
66.0200 0.1527
66.0300 0.7939
66.0400 0.0000
66.0500 0.0000
66.0600 0.0000
66.0700 0.0000
66.0800 0.0000
66.0900 0.0000
66.1000 0.0000
66.1100 0.0000
66.1200 0.9624
66.1300 0.0000
66.1400 0.0000
66.1500 0.0000
66.1600 0.0000
66.1700 0.0000
66.1800 2.6106
66.1900 0.2933
66.2000 0.0000
66.2100 0.0000
66.2200 0.0000
66.2300 0.2859
66.2400 1.7051
66.2500 0.0000
66.2600 0.0000
66.2700 0.0000
66.2800 0.0000
66.2900 1.0340
66.3000 0.0000
66.3100 1.0109
66.3200 0.0000
66.3300 0.0000
66.3400 2.0582
66.3500 1.0320
66.3600 0.0000
66.3700 0.0000
66.3800 1.6507
66.3900 0.4342
66.4000 0.9956
66.4100 0.9858
66.4200 0.8869
66.4300 0.1200
66.4400 1.8593
66.4500 0.0000
66.4600 0.0000
66.4700 0.0000
66.4800 0.0000
66.4900 0.0000
66.5000 0.0000
66.5100 0.0000
66.5200 0.9857
66.5300 0.9566
66.5400 0.0680
66.5500 0.9064
66.5600 0.0000
66.5700 0.0000
66.5800 0.9897
66.5900 0.5499
66.6000 0.4651
66.6100 0.6998
66.6200 1.2343
66.6300 0.0000
66.6400 2.1361
66.6500 1.1418
66.6600 0.9192
66.6700 0.1878
66.6800 0.4448
66.6900 1.1551
66.7000 1.2426
66.7100 0.0000
66.7200 0.0000
66.7300 0.0000
66.7400 1.9242
66.7500 0.0402
66.7600 0.0000
66.7700 0.0000
66.7800 0.0000
66.7900 0.0000
66.8000 0.0000
66.8100 0.0000
66.8200 0.0000
66.8300 0.0000
66.8400 0.0000
66.8500 0.9972
66.8600 0.0903
66.8700 1.9213
66.8800 0.0000
66.8900 0.3755
66.9000 1.6333
66.9100 0.0000
66.9200 0.0000
66.9300 0.0000
66.9400 0.0000
66.9500 1.0246
66.9600 0.0654
66.9700 0.0000
66.9800 0.0000
66.9900 1.0689
67.0000 0.4026
67.0100 0.5747
67.0200 0.0000
67.0300 1.6420
67.0400 0.2989
67.0500 0.0000
67.0600 1.9602
67.0700 1.0710
67.0800 0.0000
67.0900 0.0000
67.1000 0.0000
67.1100 0.9911
67.1200 0.5225
67.1300 0.4367
67.1400 0.0000
67.1500 0.9660
67.1600 0.9211
67.1700 0.0776
67.1800 0.9821
67.1900 0.0000
67.2000 0.0000
67.2100 0.4129
67.2200 1.6025
67.2300 1.0131
67.2400 0.0000
67.2500 0.7600
67.2600 1.2429
67.2700 0.0000
67.2800 0.0556
67.2900 0.9547
67.3000 0.0000
67.3100 0.3219
67.3200 0.6299
67.3300 0.5064
67.3400 0.4546
67.3500 0.0000
67.3600 0.0000
67.3700 0.9807
67.3800 0.0000
67.3900 0.0918
67.4000 1.8914
67.4100 1.0289
67.4200 1.0372
67.4300 0.0000
67.4400 0.5842
67.4500 0.4492
67.4600 1.7985
67.4700 0.2557
67.4800 0.0000
67.4900 0.0352
67.5000 1.0393
67.5100 0.8517
67.5200 0.3022
67.5300 1.6069
67.5400 0.0000
67.5500 0.0000
67.5600 0.6949
67.5700 0.3006
67.5800 0.0000
67.5900 1.9539
67.6000 0.0374
67.6100 1.9452
67.6200 0.0000
67.6300 2.0156
67.6400 1.4849
67.6500 0.5531
67.6600 0.6425
67.6700 1.3470
67.6800 0.8068
67.6900 0.1643
67.7000 0.9666
67.7100 0.0000
67.7200 0.0000
67.7300 0.0000
67.7400 0.0000
67.7500 0.0000
67.7600 0.0000
67.7700 1.6402
67.7800 0.3203
67.7900 0.0000
67.8000 1.0156
67.8100 0.0000
67.8200 0.0000
67.8300 0.0000
67.8400 0.9532
67.8500 0.0000
67.8600 0.0000
67.8700 0.7042
67.8800 0.4238
67.8900 0.9566
67.9000 1.0010
67.9100 2.0238
67.9200 0.9854
67.9300 1.1521
67.9400 0.7830
67.9500 0.0000
67.9600 0.0000
67.9700 0.0000
67.9800 0.0000
67.9900 0.9840
68.0000 0.0000
68.0100 0.0000
68.0200 1.9482
68.0300 0.0000
68.0400 0.0000
68.0500 2.0076
68.0600 2.0287
68.0700 0.5742
68.0800 0.5469
68.0900 0.0000
68.1000 0.7794
68.1100 0.2006
68.1200 0.9340
68.1300 0.0000
68.1400 0.9676
68.1500 0.0000
68.1600 1.0149
68.1700 0.0000
68.1800 1.9690
68.1900 0.6426
68.2000 0.3539
68.2100 0.0000
68.2200 0.0000
68.2300 3.0291
68.2400 0.0000
68.2500 0.2111
68.2600 1.8244
68.2700 0.0000
68.2800 0.5601
68.2900 1.5295
68.3000 0.6931
68.3100 1.0762
68.3200 2.1255
68.3300 1.1101
68.3400 0.0000
68.3500 0.0000
68.3600 0.0000
68.3700 0.0000
68.3800 0.0000
68.3900 0.0000
68.4000 0.0000
68.4100 0.7249
68.4200 3.1260
68.4300 0.1848
68.4400 0.0000
68.4500 0.0000
68.4600 0.0000
68.4700 0.5719
68.4800 1.4145
68.4900 0.0000
68.5000 0.0000
68.5100 2.9762
68.5200 0.9972
68.5300 0.0000
68.5400 0.0000
68.5500 0.0425
68.5600 0.9446
68.5700 1.4478
68.5800 2.5196
68.5900 0.0000
68.6000 0.5128
68.6100 2.0422
68.6200 1.4147
68.6300 1.9591
68.6400 0.0000
68.6500 0.9638
68.6600 1.1571
68.6700 0.9314
68.6800 1.2529
68.6900 0.6733
68.7000 0.4365
68.7100 0.5145
68.7200 0.6280
68.7300 0.3415
68.7400 0.8609
68.7500 0.1682
68.7600 0.0000
68.7700 0.0000
68.7800 0.0000
68.7900 0.0000
68.8000 0.0000
68.8100 0.4685
68.8200 0.4735
68.8300 0.6613
68.8400 1.0582
68.8500 0.2125
68.8600 0.0000
68.8700 0.0653
68.8800 0.9603
68.8900 0.2568
68.9000 0.7603
68.9100 1.5307
68.9200 0.5749
68.9300 0.0000
68.9400 0.9826
68.9500 0.0000
68.9600 0.9082
68.9700 2.0270
68.9800 0.0000
68.9900 0.9968
69.0000 0.0000
69.0100 0.0000
69.0200 0.0000
69.0300 0.9815
69.0400 0.0000
69.0500 0.0000
69.0600 0.9504
69.0700 1.9823
69.0800 0.0440
69.0900 0.9128
69.1000 0.2258
69.1100 0.7359
69.1200 1.8725
69.1300 1.1880
69.1400 1.0231
69.1500 1.9301
69.1600 1.8129
69.1700 0.2026
69.1800 0.9729
69.1900 2.0663
69.2000 0.0000
69.2100 0.0000
69.2200 0.0000
69.2300 0.0000
69.2400 0.5466
69.2500 0.4360
69.2600 0.0000
69.2700 3.4975
69.2800 2.5968
69.2900 1.0101
69.3000 0.2632
69.3100 1.8825
69.3200 0.0000
69.3300 0.9594
69.3400 0.0000
69.3500 0.0000
69.3600 0.0000
69.3700 0.8114
69.3800 1.8989
69.3900 0.2331
69.4000 0.0000
69.4100 0.0000
69.4200 0.0000
69.4300 0.0000
69.4400 0.0000
69.4500 0.0000
69.4600 0.0000
69.4700 0.9995
69.4800 0.0000
69.4900 0.9487
69.5000 0.0868
69.5100 1.0649
69.5200 0.0000
69.5300 0.0000
69.5400 0.9883
69.5500 1.4874
69.5600 1.1274
69.5700 2.1033
69.5800 0.3192
69.5900 0.0000
69.6000 1.0336
69.6100 0.0493
69.6200 0.9906
69.6300 0.0000
69.6400 0.3494
69.6500 2.5932
69.6600 1.5029
69.6700 1.0919
69.6800 0.3788
69.6900 0.0000
69.7000 1.0061
69.7100 0.2934
69.7200 1.0289
69.7300 0.5911
69.7400 0.9926
69.7500 0.0000
69.7600 0.4832
69.7700 0.5564
69.7800 0.0000
69.7900 0.0000
69.8000 0.9596
69.8100 0.0000
69.8200 0.0000
69.8300 0.0000
69.8400 0.2224
69.8500 0.7888
69.8600 0.3984
69.8700 0.5763
69.8800 0.0000
69.8900 0.6687
69.9000 0.2977
69.9100 0.0000
69.9200 1.0181
69.9300 0.0000
69.9400 1.1262
69.9500 0.0000
69.9600 0.0000
69.9700 0.0000
69.9800 0.0000
69.9900 0.9328
70.0000 0.7463
70.0100 1.1059
70.0200 1.1573
70.0300 1.0122
70.0400 1.8787
70.0500 2.4159
70.0600 2.2705
70.0700 2.9712
70.0800 2.4378
70.0900 1.5553
70.1000 1.4893
70.1100 2.3601
70.1200 1.7435
70.1300 0.9423
70.1400 1.0412
70.1500 0.0000
70.1600 0.2323
70.1700 2.7226
70.1800 0.4221
70.1900 0.5610
70.2000 0.6065
70.2100 0.3747
70.2200 0.8108
70.2300 2.6444
70.2400 1.1650
70.2500 0.3205
70.2600 0.0000
70.2700 0.0000
70.2800 0.3655
70.2900 0.6137
70.3000 0.0000
70.3100 0.0000
70.3200 0.0000
70.3300 0.0000
70.3400 0.0000
70.3500 0.0000
70.3600 1.1649
70.3700 0.0000
70.3800 0.3070
70.3900 0.6606
70.4000 0.0000
70.4100 0.0000
70.4200 0.0000
70.4300 0.0000
70.4400 1.0657
70.4500 0.0000
70.4600 1.0012
70.4700 0.0000
70.4800 0.0000
70.4900 0.0000
70.5000 0.0000
70.5100 0.0000
70.5200 1.5724
70.5300 1.9311
70.5400 0.5765
70.5500 0.0000
70.5600 0.0000
70.5700 0.0000
70.5800 0.0000
70.5900 1.2613
70.6000 1.0673
70.6100 1.6886
70.6200 0.5664
70.6300 0.4056
70.6400 2.2181
70.6500 0.8415
70.6600 1.0186
70.6700 2.0642
70.6800 0.9616
70.6900 0.2295
70.7000 0.7132
70.7100 0.9714
70.7200 0.0000
70.7300 0.0000
70.7400 0.0000
70.7500 0.8643
70.7600 0.2030
70.7700 0.0000
70.7800 0.0000
70.7900 0.2094
70.8000 0.9079
70.8100 0.3692
70.8200 0.6121
70.8300 0.0000
70.8400 1.0201
70.8500 1.0802
70.8600 0.9876
70.8700 0.0000
70.8800 0.0000
70.8900 0.0000
70.9000 0.0000
70.9100 0.0000
70.9200 0.0000
70.9300 0.0000
70.9400 1.0547
70.9500 1.3791
70.9600 0.5975
70.9700 0.0000
70.9800 0.0000
70.9900 1.1890
71.0000 0.0000
71.0100 0.2631
71.0200 1.7089
71.0300 0.4498
71.0400 0.5434
71.0500 0.0000
71.0600 0.0000
71.0700 0.8626
71.0800 0.1761
71.0900 0.0000
71.1000 0.1171
71.1100 1.1145
71.1200 0.7655
71.1300 0.0000
71.1400 1.5519
71.1500 0.4765
71.1600 0.0000
71.1700 0.0000
71.1800 0.9981
71.1900 0.9735
71.2000 0.9963
71.2100 0.0000
71.2200 0.2378
71.2300 0.7275
71.2400 0.0000
71.2500 0.0000
71.2600 1.5590
71.2700 2.0259
71.2800 0.2756
71.2900 0.0000
71.3000 0.0000
71.3100 0.0000
71.3200 0.9781
71.3300 0.9730
71.3400 0.0000
71.3500 0.0000
71.3600 1.1013
71.3700 1.5364
71.3800 0.3561
71.3900 0.9764
71.4000 0.0000
71.4100 1.0095
71.4200 0.0000
71.4300 0.0000
71.4400 0.0000
71.4500 0.9959
71.4600 0.0000
71.4700 0.0000
71.4800 1.0235
71.4900 0.9882
71.5000 0.0000
71.5100 0.9852
71.5200 0.0162
71.5300 0.0000
71.5400 1.2382
71.5500 3.7540
71.5600 0.8770
71.5700 2.0708
71.5800 0.0000
71.5900 2.8596
71.6000 2.1996
71.6100 2.8675
71.6200 0.0705
71.6300 0.0000
71.6400 0.0000
71.6500 1.2838
71.6600 0.6720
71.6700 0.0000
71.6800 0.0000
71.6900 0.0000
71.7000 0.0000
71.7100 1.7806
71.7200 1.3154
71.7300 0.0000
71.7400 0.9750
71.7500 0.0000
71.7600 0.9967
71.7700 0.6588
71.7800 0.9873
71.7900 0.3294
71.8000 0.0000
71.8100 1.9082
71.8200 0.8519
71.8300 1.0368
71.8400 0.0947
71.8500 1.7834
71.8600 0.0000
71.8700 0.3843
71.8800 0.6218
71.8900 0.9473
71.9000 0.7086
71.9100 1.1942
71.9200 2.9326
71.9300 0.2832
71.9400 0.0429
71.9500 1.9538
71.9600 0.9938
71.9700 0.9845
71.9800 0.0000
71.9900 0.0000
72.0000 1.5476
72.0100 0.3856
72.0200 1.5605
72.0300 0.3952
72.0400 0.0000
72.0500 0.0807
72.0600 1.8372
72.0700 0.2752
72.0800 1.0937
72.0900 1.5831
72.1000 0.0000
72.1100 0.6649
72.1200 1.1073
72.1300 0.2593
72.1400 0.0000
72.1500 1.9466
72.1600 0.0000
72.1700 0.9790
72.1800 0.9235
72.1900 0.0000
72.2000 0.0000
72.2100 0.0000
72.2200 0.6848
72.2300 1.0506
72.2400 1.0480
72.2500 0.1205
72.2600 0.9923
72.2700 0.1544
72.2800 0.8240
72.2900 0.0000
72.3000 0.4441
72.3100 1.0919
72.3200 0.4591
72.3300 0.0000
72.3400 0.0000
72.3500 0.9783
72.3600 0.9307
72.3700 1.0662
72.3800 0.8716
72.3900 0.2959
72.4000 1.1155
72.4100 0.6278
72.4200 0.5375
72.4300 1.3552
72.4400 0.0000
72.4500 0.8516
72.4600 0.1422
72.4700 1.9452
72.4800 0.0000
72.4900 0.2272
72.5000 0.7418
72.5100 0.0000
72.5200 0.9484
72.5300 0.0000
72.5400 1.6753
72.5500 1.0717
72.5600 0.1990
72.5700 0.0000
72.5800 0.0855
72.5900 0.9319
72.6000 0.0000
72.6100 0.0000
72.6200 0.9501
72.6300 0.0000
72.6400 0.7204
72.6500 1.4981
72.6600 0.9941
72.6700 0.0000
72.6800 1.9372
72.6900 0.9367
72.7000 0.0000
72.7100 0.0000
72.7200 0.0000
72.7300 0.5034
72.7400 1.4539
72.7500 1.7816
72.7600 2.0952
72.7700 1.0878
72.7800 1.0972
72.7900 1.0222
72.8000 0.0000
72.8100 2.2786
72.8200 1.0535
72.8300 0.6230
72.8400 0.0000
72.8500 0.0000
72.8600 0.0000
72.8700 0.9404
72.8800 0.9063
72.8900 0.0833
72.9000 0.0000
72.9100 2.0528
72.9200 0.0000
72.9300 0.0000
72.9400 0.5254
72.9500 0.5642
72.9600 0.0000
72.9700 1.9020
72.9800 0.9726
72.9900 0.0000
73.0000 0.0465
73.0100 1.0510
73.0200 0.8400
73.0300 0.0000
73.0400 2.3539
73.0500 3.0362
73.0600 3.3078
73.0700 0.0000
73.0800 0.7780
73.0900 0.1900
73.1000 0.0000
73.1100 0.0000
73.1200 0.0000
73.1300 0.0000
73.1400 0.3654
73.1500 1.6112
73.1600 0.0000
73.1700 0.0000
73.1800 0.0000
73.1900 0.0000
73.2000 0.0000
73.2100 2.0678
73.2200 0.0000
73.2300 0.2370
73.2400 0.8421
73.2500 0.0000
73.2600 0.4905
73.2700 0.4850
73.2800 0.6981
73.2900 0.3113
73.3000 0.8428
73.3100 0.1145
73.3200 0.0000
73.3300 0.0000
73.3400 0.0000
73.3500 0.9666
73.3600 0.0000
73.3700 0.0000
73.3800 0.0000
73.3900 1.9592
73.4000 0.0000
73.4100 0.9125
73.4200 0.0807
73.4300 0.1078
73.4400 0.8951
73.4500 0.9470
73.4600 1.9346
73.4700 0.5416
73.4800 1.1121
73.4900 2.4767
73.5000 0.0000
73.5100 0.9575
73.5200 0.0000
73.5300 0.0547
73.5400 1.0074
73.5500 0.0000
73.5600 0.3159
73.5700 1.0275
73.5800 0.5314
73.5900 0.0000
73.6000 0.7175
73.6100 1.1131
73.6200 0.1973
73.6300 0.9713
73.6400 2.0151
73.6500 1.0026
73.6600 0.0000
73.6700 0.0000
73.6800 0.0000
73.6900 0.5499
73.7000 0.4289
73.7100 0.8134
73.7200 1.2483
73.7300 0.0000
73.7400 1.8807
73.7500 0.0000
73.7600 0.0000
73.7700 0.0000
73.7800 1.2213
73.7900 2.2102
73.8000 0.4518
73.8100 0.0000
73.8200 0.0000
73.8300 2.8809
73.8400 2.1628
73.8500 0.0000
73.8600 0.0000
73.8700 0.2457
73.8800 0.6960
73.8900 1.0261
73.9000 0.0000
73.9100 0.0000
73.9200 0.0000
73.9300 0.9946
73.9400 0.9795
73.9500 0.0000
73.9600 0.0000
73.9700 0.0000
73.9800 1.9538
73.9900 0.0000
74.0000 0.0000
74.0100 0.0000
74.0200 0.6402
74.0300 0.3057
74.0400 0.0000
74.0500 0.0000
74.0600 0.0000
74.0700 0.0000
74.0800 0.2485
74.0900 2.7418
74.1000 0.0000
74.1100 0.0000
74.1200 0.0000
74.1300 0.7240
74.1400 1.1587
74.1500 0.2048
74.1600 0.0000
74.1700 0.0000
74.1800 1.1257
74.1900 1.2789
74.2000 0.7203
74.2100 0.0000
74.2200 0.9960
74.2300 0.6390
74.2400 0.3306
74.2500 0.8497
74.2600 0.1525
74.2700 0.0349
74.2800 1.0483
74.2900 2.0544
74.3000 1.7792
74.3100 0.0000
74.3200 0.9395
74.3300 0.0000
74.3400 1.3705
74.3500 0.5946
74.3600 1.0045
74.3700 0.0000
74.3800 0.9854
74.3900 0.0000
74.4000 0.0000
74.4100 1.3344
74.4200 1.1664
74.4300 0.5624
74.4400 0.9467
74.4500 0.6315
74.4600 0.0000
74.4700 2.1192
74.4800 4.2481
74.4900 0.0000
74.5000 1.0219
74.5100 0.0000
74.5200 0.0000
74.5300 0.4872
74.5400 1.4734
74.5500 1.0164
74.5600 0.7902
74.5700 0.2306
74.5800 1.0710
74.5900 0.0000
74.6000 0.1525
74.6100 2.9931
74.6200 0.0000
74.6300 0.0000
74.6400 0.3153
74.6500 0.6077
74.6600 1.7338
74.6700 0.2892
74.6800 0.0000
74.6900 0.0000
74.7000 0.1844
74.7100 1.9307
74.7200 0.7962
74.7300 0.3616
74.7400 0.5930
74.7500 0.9839
74.7600 0.0000
74.7700 0.7214
74.7800 0.2324
74.7900 0.0000
74.8000 0.0000
74.8100 0.9806
74.8200 0.0000
74.8300 0.9927
74.8400 0.0000
74.8500 0.0000
74.8600 0.0000
74.8700 0.0000
74.8800 0.0000
74.8900 0.0000
74.9000 0.0000
74.9100 0.0000
74.9200 0.3393
74.9300 2.5896
74.9400 0.7144
74.9500 1.7538
74.9600 0.5854
74.9700 0.0000
74.9800 0.0000
74.9900 0.9711
75.0000 0.0000
75.0100 2.9944
75.0200 0.9474
75.0300 0.0000
75.0400 0.0000
75.0500 0.0000
75.0600 0.0000
75.0700 0.0000
75.0800 0.6597
75.0900 0.3068
75.1000 0.0000
75.1100 0.0000
75.1200 1.0525
75.1300 0.9402
75.1400 0.2300
75.1500 0.6938
75.1600 0.9734
75.1700 0.5388
75.1800 0.4737
75.1900 0.0000
75.2000 0.0000
75.2100 0.8624
75.2200 1.1170
75.2300 0.0964
75.2400 1.8859
75.2500 0.0000
75.2600 1.0259
75.2700 0.0000
75.2800 0.0000
75.2900 0.7475
75.3000 0.3768
75.3100 0.0000
75.3200 1.5785
75.3300 0.0865
75.3400 0.3482
75.3500 0.0000
75.3600 0.9862
75.3700 0.0000
75.3800 0.0000
75.3900 1.0061
75.4000 0.0000
75.4100 1.5412
75.4200 0.3911
75.4300 0.0000
75.4400 0.0000
75.4500 0.9586
75.4600 1.2549
75.4700 1.1121
75.4800 1.6267
75.4900 0.0000
75.5000 1.2245
75.5100 0.6677
75.5200 0.0000
75.5300 0.0000
75.5400 0.9955
75.5500 1.1760
75.5600 0.9115
75.5700 0.0000
75.5800 1.9299
75.5900 0.4768
75.6000 0.4831
75.6100 0.6886
75.6200 0.3159
75.6300 0.8585
75.6400 1.0540
75.6500 0.0301
75.6600 1.1336
75.6700 1.1872
75.6800 1.0794
75.6900 1.0810
75.7000 2.5479
75.7100 0.2003
75.7200 2.2100
75.7300 1.3823
75.7400 1.1902
75.7500 0.0846
75.7600 0.0000
75.7700 0.0000
75.7800 0.2914
75.7900 0.7127
75.8000 0.0000
75.8100 1.9534
75.8200 0.0000
75.8300 0.7240
75.8400 2.1759
75.8500 0.0000
75.8600 1.8777
75.8700 0.0000
75.8800 0.0000
75.8900 0.9074
75.9000 0.0000
75.9100 0.0000
75.9200 0.9719
75.9300 0.0000
75.9400 1.5546
75.9500 1.4042
75.9600 0.0000
75.9700 1.9589
75.9800 0.0000
75.9900 0.0000
76.0000 0.0000
76.0100 0.0000
76.0200 0.0000
76.0300 0.0000
76.0400 0.9577
76.0500 0.9783
76.0600 0.0000
76.0700 0.0000
76.0800 0.0000
76.0900 0.2068
76.1000 0.7487
76.1100 0.0000
76.1200 0.0000
76.1300 0.0000
76.1400 0.7049
76.1500 0.3191
76.1600 0.8577
76.1700 1.1126
76.1800 0.0000
76.1900 0.1625
76.2000 0.8511
76.2100 0.9802
76.2200 1.9508
76.2300 0.0000
76.2400 0.0000
76.2500 0.0000
76.2600 0.0000
76.2700 0.9131
76.2800 1.0826
76.2900 0.0000
76.3000 0.1928
76.3100 1.0637
76.3200 1.0840
76.3300 0.6225
76.3400 0.0000
76.3500 0.0000
76.3600 0.0000
76.3700 0.0000
76.3800 0.0000
76.3900 0.0000
76.4000 0.0000
76.4100 0.2623
76.4200 0.8443
76.4300 0.0000
76.4400 0.0000
76.4500 0.0000
76.4600 0.6912
76.4700 0.2837
76.4800 0.8801
76.4900 0.1002
76.5000 0.0000
76.5100 0.0000
76.5200 1.1038
76.5300 0.0000
76.5400 1.9495
76.5500 1.0978
76.5600 0.6181
76.5700 1.0327
76.5800 2.1026
76.5900 2.1643
76.6000 0.9910
76.6100 0.1208
76.6200 0.8464
76.6300 0.3116
76.6400 0.6817
76.6500 1.5357
76.6600 1.5229
76.6700 0.0000
76.6800 0.0000
76.6900 0.0000
76.7000 1.0506
76.7100 2.0277
76.7200 0.0000
76.7300 0.0000
76.7400 0.3531
76.7500 1.0666
76.7600 1.0434
76.7700 0.4470
76.7800 2.6427
76.7900 1.0918
76.8000 1.2185
76.8100 1.9583
76.8200 3.0227
76.8300 0.0000
76.8400 1.0428
76.8500 1.3451
76.8600 0.5824
76.8700 0.9758
76.8800 0.0000
76.8900 2.4894
76.9000 0.4558
76.9100 0.9256
76.9200 1.0455
76.9300 0.9237
76.9400 1.0608
76.9500 3.0286
76.9600 0.8592
76.9700 1.1448
76.9800 0.9825
76.9900 0.0000
77.0000 0.0000
77.0100 1.9453
77.0200 0.0000
77.0300 0.9510
77.0400 0.5499
77.0500 3.3985
77.0600 0.0000
77.0700 1.4403
77.0800 0.5486
77.0900 0.0000
77.1000 0.0000
77.1100 0.0000
77.1200 0.0000
77.1300 0.0000
77.1400 0.0000
77.1500 1.0256
77.1600 0.9530
77.1700 0.9775
77.1800 0.0000
77.1900 1.0390
77.2000 0.0000
77.2100 0.0000
77.2200 0.0000
77.2300 1.8714
77.2400 0.1430
77.2500 1.8500
77.2600 0.2677
77.2700 0.7597
77.2800 0.0000
77.2900 0.0000
77.3000 0.0000
77.3100 0.0000
77.3200 0.9890
77.3300 0.9292
77.3400 0.0956
77.3500 1.0167
77.3600 0.0000
77.3700 1.0472
77.3800 0.0000
77.3900 0.9957
77.4000 0.0000
77.4100 0.6942
77.4200 0.3320
77.4300 1.6769
77.4400 0.2611
77.4500 1.0843
77.4600 1.0799
77.4700 1.1037
77.4800 0.9676
77.4900 0.6276
77.5000 0.8834
77.5100 0.9276
77.5200 0.3834
77.5300 1.9964
77.5400 0.0000
77.5500 0.0000
77.5600 0.0000
77.5700 0.0000
77.5800 1.0570
77.5900 0.0000
77.6000 0.0000
77.6100 0.0000
77.6200 0.0000
77.6300 0.0000
77.6400 0.9513
77.6500 0.0000
77.6600 0.0000
77.6700 0.0000
77.6800 0.0000
77.6900 0.3081
77.7000 0.6561
77.7100 0.0000
77.7200 0.5845
77.7300 0.3853
77.7400 0.7651
77.7500 1.1634
77.7600 0.9421
77.7700 1.1014
77.7800 0.8988
77.7900 0.2523
77.8000 0.7052
77.8100 0.4662
77.8200 0.5647
77.8300 0.0000
77.8400 0.7658
77.8500 1.0626
77.8600 0.1614
77.8700 2.0341
77.8800 3.1179
77.8900 0.8426
77.9000 0.0000
77.9100 1.0135
77.9200 0.4989
77.9300 1.1062
77.9400 0.4173
77.9500 0.0000
77.9600 0.0000
77.9700 0.0000
77.9800 0.1201
77.9900 2.1389
78.0000 0.8430
78.0100 0.0000
78.0200 0.0000
78.0300 0.0000
78.0400 0.0000
78.0500 0.0000
78.0600 0.8055
78.0700 0.1864
78.0800 0.0000
78.0900 0.0000
78.1000 0.0000
78.1100 2.0097
78.1200 0.0000
78.1300 0.9954
78.1400 1.0769
78.1500 0.9541
78.1600 0.7527
78.1700 0.2429
78.1800 0.9342
78.1900 0.0927
78.2000 1.0647
78.2100 1.9006
78.2200 0.3032
78.2300 1.0642
78.2400 1.1043
78.2500 0.4846
78.2600 0.0000
78.2700 0.9513
78.2800 2.8849
78.2900 1.1151
78.3000 0.9588
78.3100 0.0000
78.3200 0.0000
78.3300 0.0000
78.3400 0.0000
78.3500 0.0000
78.3600 0.0000
78.3700 0.0000
78.3800 0.7860
78.3900 0.1579
78.4000 0.0000
78.4100 0.0000
78.4200 0.2105
78.4300 1.7725
78.4400 0.0000
78.4500 0.0000
78.4600 2.6777
78.4700 2.8212
78.4800 1.6123
78.4900 1.7926
78.5000 0.1227
78.5100 0.0000
78.5200 0.0000
78.5300 0.0000
78.5400 1.3353
78.5500 0.6565
78.5600 1.0342
78.5700 0.0000
78.5800 0.7002
78.5900 1.0564
78.6000 1.0426
78.6100 1.1183
78.6200 0.0000
78.6300 0.0000
78.6400 1.0373
78.6500 0.3723
78.6600 0.6040
78.6700 0.9569
78.6800 0.0000
78.6900 0.0000
78.7000 2.0482
78.7100 0.9612
78.7200 0.0000
78.7300 0.0000
78.7400 1.0364
78.7500 0.0000
78.7600 0.0000
78.7700 0.0000
78.7800 0.9794
78.7900 0.0000
78.8000 1.0198
78.8100 0.0000
78.8200 0.0000
78.8300 0.0789
78.8400 1.9229
78.8500 0.0000
78.8600 0.3805
78.8700 1.1220
78.8800 1.1137
78.8900 0.4650
78.9000 0.0000
78.9100 0.0000
78.9200 0.0000
78.9300 0.0000
78.9400 0.0000
78.9500 0.6248
78.9600 0.3102
78.9700 1.4103
78.9800 0.5946
78.9900 0.0000
79.0000 0.0000
79.0100 0.0000
79.0200 0.8357
79.0300 0.1205
79.0400 0.0000
79.0500 0.0000
79.0600 0.9530
79.0700 0.0000
79.0800 0.0000
79.0900 0.0000
79.1000 0.0000
79.1100 0.7291
79.1200 1.2470
79.1300 2.9216
79.1400 0.0861
79.1500 1.0666
79.1600 0.0000
79.1700 0.0000
79.1800 0.0000
79.1900 0.9666
79.2000 0.6585
79.2100 0.4906
79.2200 1.0445
79.2300 0.0000
79.2400 0.0000
79.2500 0.9610
79.2600 0.1484
79.2700 0.9160
79.2800 0.0000
79.2900 0.0000
79.3000 1.4688
79.3100 0.4632
79.3200 0.0000
79.3300 0.0000
79.3400 0.0000
79.3500 0.0000
79.3600 1.0697
79.3700 0.9513
79.3800 0.0000
79.3900 0.0000
79.4000 0.4889
79.4100 2.1116
79.4200 0.4536
79.4300 0.0000
79.4400 0.9867
79.4500 1.0120
79.4600 1.9288
79.4700 0.0000
79.4800 0.0000
79.4900 0.0000
79.5000 0.0000
79.5100 0.5469
79.5200 0.5485
79.5300 0.9640
79.5400 0.0000
79.5500 0.0000
79.5600 0.0000
79.5700 0.0000
79.5800 1.0590
79.5900 0.0000
79.6000 0.0000
79.6100 0.0000
79.6200 0.0000
79.6300 0.0000
79.6400 1.0977
79.6500 0.0000
79.6600 0.0000
79.6700 0.0000
79.6800 0.0000
79.6900 0.9863
79.7000 0.0000
79.7100 0.3784
79.7200 0.5989
79.7300 0.0000
79.7400 1.6167
79.7500 1.3002
79.7600 0.0000
79.7700 1.9272
79.7800 0.0455
79.7900 0.0000
79.8000 0.0000
79.8100 0.0000
79.8200 0.0000
79.8300 0.0000
79.8400 0.0000
79.8500 0.0000
79.8600 0.0000
79.8700 0.0000
79.8800 0.0000
79.8900 1.0530
79.9000 0.0000
79.9100 0.0000
79.9200 0.9864
79.9300 0.0000
79.9400 1.0322
79.9500 0.6912
79.9600 0.3679
79.9700 0.0000
79.9800 0.8960
79.9900 0.0910
80.0000 0.9499
80.0100 0.2434
80.0200 0.8679
80.0300 0.0000
80.0400 0.0000
80.0500 1.0072
80.0600 1.0279
80.0700 0.7654
80.0800 2.0152
80.0900 1.0971
80.1000 3.0311
80.1100 0.0000
80.1200 0.0000
80.1300 0.0000
80.1400 0.0000
80.1500 0.0000
80.1600 0.0000
80.1700 1.0023
80.1800 0.9579
80.1900 0.0000
80.2000 0.0129
80.2100 1.0168
80.2200 0.0000
80.2300 1.2679
80.2400 0.6877
80.2500 0.0000
80.2600 0.0000
80.2700 0.9908
80.2800 0.3110
80.2900 0.8142
80.3000 0.7522
80.3100 0.0000
80.3200 1.0855
80.3300 0.0000
80.3400 0.6706
80.3500 1.3371
80.3600 0.0000
80.3700 0.0000
80.3800 0.0000
80.3900 0.0000
80.4000 0.0000
80.4100 0.0000
80.4200 0.0000
80.4300 0.0000
80.4400 0.0000
80.4500 0.3603
80.4600 0.6074
80.4700 0.0000
80.4800 0.6575
80.4900 0.3455
80.5000 0.9460
80.5100 0.9300
80.5200 0.0607
80.5300 0.9935
80.5400 0.0000
80.5500 0.0000
80.5600 0.0000
80.5700 0.0000
80.5800 0.0000
80.5900 0.0000
80.6000 0.0000
80.6100 0.0000
80.6200 0.0000
80.6300 0.0000
80.6400 0.0000
80.6500 0.0000
80.6600 0.0000
80.6700 0.0000
80.6800 0.5941
80.6900 1.1216
80.7000 1.0636
80.7100 2.7815
80.7200 0.5290
80.7300 0.9392
80.7400 0.0000
80.7500 0.0000
80.7600 0.0000
80.7700 0.0000
80.7800 0.0000
80.7900 0.0000
80.8000 0.0000
80.8100 0.0000
80.8200 1.8103
80.8300 1.2034
80.8400 0.0390
80.8500 0.9742
80.8600 0.9851
80.8700 0.0000
80.8800 1.9051
80.8900 0.0000
80.9000 0.6025
80.9100 0.3691
80.9200 0.0000
80.9300 0.0000
80.9400 1.0245
80.9500 0.9905
80.9600 2.0025
80.9700 1.9436
80.9800 2.3267
80.9900 0.5922
81.0000 0.0000
81.0100 0.0000
81.0200 0.0000
81.0300 0.8533
81.0400 0.1539
81.0500 0.0000
81.0600 0.0000
81.0700 0.0000
81.0800 0.0000
81.0900 0.0000
81.1000 0.0000
81.1100 0.0000
81.1200 0.0000
81.1300 0.0000
81.1400 0.8895
81.1500 1.0859
81.1600 0.0000
81.1700 0.0000
81.1800 0.0000
81.1900 0.0000
81.2000 0.0000
81.2100 0.0000
81.2200 0.0000
81.2300 0.7766
81.2400 0.2798
81.2500 1.7960
81.2600 1.1367
81.2700 1.0552
81.2800 0.6256
81.2900 2.7069
81.3000 2.4319
81.3100 3.1171
81.3200 1.7018
81.3300 3.4646
81.3400 0.3194
81.3500 0.8574
81.3600 2.0542
81.3700 1.1497
81.3800 1.2180
81.3900 1.1337
81.4000 1.4573
81.4100 0.4710
81.4200 0.6137
81.4300 0.0000
81.4400 0.0000
81.4500 0.9948
81.4600 0.0000
81.4700 2.6654
81.4800 0.0000
81.4900 1.1936
81.5000 0.7999
81.5100 0.0000
81.5200 0.9916
81.5300 0.9299
81.5400 0.0000
81.5500 1.7342
81.5600 0.2358
81.5700 1.8049
81.5800 0.1060
81.5900 0.0000
81.6000 1.0131
81.6100 0.0000
81.6200 1.7683
81.6300 0.5732
81.6400 0.6107
81.6500 0.0000
81.6600 0.7588
81.6700 0.1968
81.6800 1.9538
81.6900 1.0852
81.7000 1.0544
81.7100 0.9292
81.7200 0.3582
81.7300 2.2560
81.7400 0.6160
81.7500 0.0000
81.7600 1.0036
81.7700 0.7986
81.7800 1.1626
81.7900 0.0000
81.8000 0.1084
81.8100 3.0557
81.8200 0.7901
81.8300 0.9718
81.8400 1.1113
81.8500 0.0000
81.8600 0.0000
81.8700 0.0000
81.8800 0.0000
81.8900 0.0000
81.9000 0.0000
81.9100 0.0000
81.9200 0.7221
81.9300 0.2387
81.9400 0.5992
81.9500 0.3575
81.9600 0.0000
81.9700 0.9893
81.9800 1.7956
81.9900 0.1856
82.0000 0.0000
82.0100 0.1045
82.0200 0.9632
82.0300 0.2782
82.0400 1.0715
82.0500 0.6161
82.0600 0.6673
82.0700 0.5037
82.0800 1.0673
82.0900 0.8645
82.1000 1.0826
82.1100 0.0518
82.1200 0.0000
82.1300 0.0000
82.1400 0.0000
82.1500 0.0000
82.1600 1.0127
82.1700 0.0000
82.1800 1.0011
82.1900 0.0000
82.2000 2.8609
82.2100 0.5493
82.2200 0.0047
82.2300 0.6547
82.2400 0.0000
82.2500 0.0000
82.2600 0.9543
82.2700 0.0000
82.2800 0.0000
82.2900 0.0000
82.3000 0.0000
82.3100 0.0000
82.3200 1.9683
82.3300 0.0000
82.3400 0.0000
82.3500 0.0000
82.3600 0.0000
82.3700 0.0000
82.3800 0.0000
82.3900 0.6885
82.4000 0.3168
82.4100 1.6893
82.4200 1.1823
82.4300 4.0458
82.4400 0.1602
82.4500 0.8613
82.4600 1.6146
82.4700 1.3144
82.4800 0.0000
82.4900 1.9392
82.5000 0.0000
82.5100 0.8368
82.5200 0.1867
82.5300 3.9499
82.5400 2.1950
82.5500 2.8147
82.5600 0.8879
82.5700 2.9542
82.5800 2.2916
82.5900 1.6854
82.6000 3.9176
82.6100 2.8735
82.6200 2.3065
82.6300 7.8596
82.6400 6.2246
82.6500 5.2945
82.6600 5.8188
82.6700 3.3771
82.6800 5.2303
82.6900 7.2196
82.7000 3.5954
82.7100 4.4496
82.7200 1.6665
82.7300 2.2423
82.7400 2.2181
82.7500 4.3247
82.7600 5.0122
82.7700 5.5367
82.7800 4.4836
82.7900 0.0000
82.8000 1.5112
82.8100 1.3786
82.8200 0.7622
82.8300 3.2376
82.8400 1.0952
82.8500 1.0098
82.8600 0.2503
82.8700 4.6976
82.8800 1.6304
82.8900 3.7283
82.9000 2.5372
82.9100 2.6021
82.9200 1.8002
82.9300 4.6524
82.9400 0.8783
82.9500 1.0713
82.9600 0.9794
82.9700 0.0000
82.9800 0.4940
82.9900 3.3633
83.0000 1.4432
83.0100 1.6304
83.0200 2.5988
83.0300 1.1168
83.0400 1.1150
83.0500 2.3299
83.0600 0.0092
83.0700 1.0922
83.0800 0.9529
83.0900 0.0000
83.1000 0.7858
83.1100 2.3697
83.1200 1.5418
83.1300 1.7441
83.1400 0.6512
83.1500 0.8638
83.1600 1.1335
83.1700 0.0000
83.1800 0.0000
83.1900 0.0000
83.2000 0.0000
83.2100 0.0000
83.2200 0.9854
83.2300 0.0000
83.2400 0.0000
83.2500 0.7875
83.2600 0.1935
83.2700 0.0000
83.2800 1.0468
83.2900 0.1733
83.3000 0.7875
83.3100 0.0000
83.3200 0.4891
83.3300 0.5660
83.3400 2.8948
83.3500 3.5252
83.3600 1.3563
83.3700 0.1570
83.3800 2.9819
83.3900 0.0000
83.4000 3.0019
83.4100 0.0000
83.4200 1.4197
83.4300 1.5511
83.4400 2.6021
83.4500 0.3941
83.4600 0.8049
83.4700 0.2204
83.4800 0.0000
83.4900 1.9792
83.5000 0.0000
83.5100 0.0000
83.5200 1.0072
83.5300 0.0000
83.5400 0.5332
83.5500 0.4538
83.5600 0.0000
83.5700 0.0000
83.5800 0.0000
83.5900 0.9327
83.6000 0.0000
83.6100 0.1862
83.6200 1.7060
83.6300 0.3957
83.6400 1.6081
83.6500 0.5539
83.6600 2.4161
83.6700 0.9781
83.6800 0.8362
83.6900 1.1476
83.7000 6.8840
83.7100 2.9462
83.7200 2.0234
83.7300 0.9878
83.7400 2.9478
83.7500 0.9982
83.7600 0.9672
83.7700 0.0000
83.7800 0.0000
83.7900 0.0000
83.8000 0.9363
83.8100 0.0000
83.8200 0.0000
83.8300 0.0000
83.8400 0.3723
83.8500 0.6283
83.8600 0.5383
83.8700 0.4215
83.8800 1.6877
83.8900 0.2390
83.9000 1.0350
83.9100 1.0546
83.9200 0.0000
83.9300 0.0000
83.9400 0.0000
83.9500 0.9527
83.9600 0.0000
83.9700 1.5921
83.9800 1.3931
83.9900 0.9782
84.0000 0.0000
84.0100 1.0572
84.0200 0.0475
84.0300 0.2920
84.0400 0.1634
84.0500 1.4037
84.0600 0.0000
84.0700 0.0000
84.0800 0.0000
84.0900 3.1999
84.1000 1.8181
84.1100 3.0271
84.1200 0.1754
84.1300 4.0911
84.1400 0.0000
84.1500 1.9514
84.1600 0.0000
84.1700 0.9634
84.1800 0.0000
84.1900 0.0000
84.2000 0.0000
84.2100 1.7985
84.2200 0.1285
84.2300 0.0000
84.2400 0.9726
84.2500 0.2417
84.2600 0.7561
84.2700 0.0000
84.2800 0.0000
84.2900 0.0000
84.3000 0.0000
84.3100 1.5311
84.3200 1.2304
84.3300 4.2565
84.3400 0.0058
84.3500 1.1590
84.3600 0.0000
84.3700 1.3919
84.3800 0.6218
84.3900 0.0000
84.4000 0.0000
84.4100 0.0000
84.4200 1.0157
84.4300 0.0000
84.4400 0.0367
84.4500 1.1114
84.4600 0.8124
84.4700 1.0053
84.4800 0.0000
84.4900 0.4870
84.5000 1.4417
84.5100 0.0000
84.5200 0.0000
84.5300 0.0000
84.5400 1.8952
84.5500 0.9720
84.5600 0.0000
84.5700 0.9802
84.5800 0.0000
84.5900 0.9537
84.6000 1.1296
84.6100 0.0000
84.6200 0.0000
84.6300 0.0000
84.6400 0.0000
84.6500 0.9920
84.6600 0.0000
84.6700 0.0000
84.6800 0.3022
84.6900 2.6577
84.7000 0.0000
84.7100 1.0230
84.7200 1.9375
84.7300 0.7910
84.7400 0.2321
84.7500 0.0000
84.7600 0.9780
84.7700 0.0000
84.7800 0.9437
84.7900 0.0000
84.8000 0.0000
84.8100 0.0000
84.8200 0.0000
84.8300 0.0000
84.8400 0.8316
84.8500 2.0560
84.8600 0.0935
84.8700 0.0000
84.8800 0.1926
84.8900 2.0894
84.9000 1.1092
84.9100 0.6193
84.9200 0.0000
84.9300 0.0000
84.9400 0.0000
84.9500 0.0000
84.9600 2.0177
84.9700 0.7190
84.9800 0.9319
84.9900 0.5638
85.0000 0.7577
85.0100 0.4376
85.0200 0.6138
85.0300 2.6470
85.0400 0.3919
85.0500 0.0000
85.0600 0.0000
85.0700 0.0000
85.0800 0.0000
85.0900 0.1734
85.1000 2.1087
85.1100 0.7247
85.1200 0.0000
85.1300 0.5370
85.1400 0.4413
85.1500 0.7352
85.1600 0.2614
85.1700 0.0000
85.1800 2.0139
85.1900 0.0000
85.2000 0.2018
85.2100 1.1106
85.2200 0.8005
85.2300 1.5207
85.2400 0.5389
85.2500 1.1137
85.2600 0.0000
85.2700 0.9733
85.2800 0.0000
85.2900 2.0565
85.3000 0.1595
85.3100 0.8788
85.3200 0.0000
85.3300 0.0000
85.3400 0.9821
85.3500 0.0000
85.3600 0.0000
85.3700 0.0000
85.3800 0.0000
85.3900 0.0000
85.4000 1.0969
85.4100 0.8979
85.4200 0.0000
85.4300 1.7655
85.4400 1.2266
85.4500 0.0000
85.4600 0.0000
85.4700 0.0000
85.4800 1.1031
85.4900 0.9349
85.5000 0.0522
85.5100 0.0000
85.5200 0.0000
85.5300 0.6515
85.5400 1.3551
85.5500 0.0000
85.5600 0.0000
85.5700 0.0000
85.5800 1.9579
85.5900 0.0000
85.6000 0.0000
85.6100 0.0000
85.6200 0.0000
85.6300 0.2609
85.6400 0.7104
85.6500 0.0000
85.6600 1.5686
85.6700 0.4451
85.6800 0.0000
85.6900 0.0000
85.7000 0.0000
85.7100 0.0383
85.7200 1.5719
85.7300 0.0648
85.7400 0.2402
85.7500 0.0000
85.7600 1.4553
85.7700 2.4738
85.7800 0.0000
85.7900 0.0000
85.8000 0.8518
85.8100 2.0870
85.8200 0.1263
85.8300 2.8663
85.8400 0.2401
85.8500 1.7353
85.8600 0.0000
85.8700 1.0032
85.8800 0.0000
85.8900 0.9684
85.9000 0.9696
85.9100 1.9740
85.9200 0.0917
85.9300 1.1073
85.9400 0.8897
85.9500 1.2519
85.9600 0.7031
85.9700 0.0000
85.9800 0.0000
85.9900 0.3186
86.0000 0.0000
86.0100 1.5369
86.0200 0.1518
86.0300 0.0449
86.0400 1.9431
86.0500 0.0000
86.0600 0.3118
86.0700 0.6399
86.0800 0.5761
86.0900 0.5396
86.1000 0.6811
86.1100 0.2848
86.1200 1.7578
86.1300 0.2085
86.1400 0.0000
86.1500 0.0000
86.1600 0.0000
86.1700 1.3844
86.1800 1.7143
86.1900 0.9679
86.2000 0.9853
86.2100 0.0000
86.2200 0.0000
86.2300 0.0000
86.2400 0.0270
86.2500 0.9850
86.2600 0.2115
86.2700 2.3531
86.2800 1.3145
86.2900 0.0000
86.3000 0.0000
86.3100 1.6261
86.3200 1.2811
86.3300 0.0000
86.3400 0.0000
86.3500 0.0000
86.3600 0.0000
86.3700 1.9828
86.3800 0.7063
86.3900 1.3222
86.4000 0.0000
86.4100 0.0000
86.4200 2.6299
86.4300 0.5882
86.4400 0.0000
86.4500 0.0000
86.4600 0.0000
86.4700 0.0000
86.4800 0.0000
86.4900 0.0000
86.5000 0.0000
86.5100 0.0000
86.5200 2.6789
86.5300 0.3218
86.5400 0.8648
86.5500 1.1854
86.5600 1.0624
86.5700 0.0000
86.5800 0.0000
86.5900 1.0023
86.6000 0.4568
86.6100 2.0453
86.6200 1.0565
86.6300 0.3800
86.6400 0.0000
86.6500 0.0000
86.6600 0.0000
86.6700 0.9623
86.6800 0.0000
86.6900 0.9727
86.7000 0.0000
86.7100 1.0451
86.7200 0.9688
86.7300 0.0000
86.7400 0.7458
86.7500 0.2534
86.7600 0.7278
86.7700 0.0504
86.7800 0.0000
86.7900 0.0000
86.8000 0.0000
86.8100 0.0000
86.8200 1.0919
86.8300 0.0000
86.8400 1.6858
86.8500 1.2693
86.8600 0.0000
86.8700 0.0000
86.8800 0.9813
86.8900 0.0000
86.9000 0.2929
86.9100 1.1957
86.9200 1.5831
86.9300 1.5099
86.9400 1.4252
86.9500 0.0000
86.9600 1.0057
86.9700 0.9780
86.9800 1.1033
86.9900 2.1967
87.0000 0.8628
87.0100 1.2904
87.0200 0.0000
87.0300 1.1854
87.0400 0.9567
87.0500 0.6845
87.0600 1.3202
87.0700 1.9928
87.0800 0.9713
87.0900 1.0222
87.1000 0.2909
87.1100 1.7210
87.1200 0.0000
87.1300 0.0000
87.1400 1.9896
87.1500 1.0840
87.1600 0.7512
87.1700 1.8773
87.1800 1.3936
87.1900 0.0000
87.2000 0.0000
87.2100 0.0000
87.2200 0.0000
87.2300 1.4524
87.2400 1.0453
87.2500 0.5062
87.2600 0.0000
87.2700 0.7808
87.2800 1.1200
87.2900 2.0778
87.3000 1.0934
87.3100 1.0708
87.3200 0.0000
87.3300 0.0000
87.3400 1.4343
87.3500 0.6456
87.3600 0.5834
87.3700 2.0179
87.3800 0.2971
87.3900 2.7494
87.4000 0.3677
87.4100 2.0281
87.4200 0.0000
87.4300 1.0128
87.4400 0.0000
87.4500 0.9747
87.4600 0.0000
87.4700 0.9767
87.4800 0.0000
87.4900 0.8613
87.5000 0.1815
87.5100 1.0077
87.5200 1.0368
87.5300 0.0000
87.5400 1.0329
87.5500 0.0000
87.5600 0.9709
87.5700 2.0359
87.5800 0.0000
87.5900 0.0000
87.6000 0.0000
87.6100 0.0000
87.6200 0.0000
87.6300 0.0000
87.6400 0.0000
87.6500 0.7044
87.6600 1.8310
87.6700 0.5826
87.6800 1.5763
87.6900 0.3778
87.7000 0.0000
87.7100 0.0000
87.7200 0.0000
87.7300 1.0054
87.7400 0.9734
87.7500 0.0000
87.7600 0.9801
87.7700 0.0000
87.7800 0.0000
87.7900 2.2361
87.8000 0.0000
87.8100 0.8205
87.8200 0.1487
87.8300 1.0148
87.8400 0.1428
87.8500 0.9577
87.8600 0.3093
87.8700 1.6533
87.8800 1.4777
87.8900 0.4651
87.9000 0.0000
87.9100 0.0000
87.9200 0.0000
87.9300 0.9851
87.9400 0.0000
87.9500 0.0000
87.9600 1.3213
87.9700 0.7336
87.9800 0.4620
87.9900 2.5277
88.0000 2.0020
88.0100 1.0149
88.0200 0.8608
88.0300 0.1777
88.0400 3.9590
88.0500 0.1053
88.0600 1.0419
88.0700 2.6221
88.0800 4.2379
88.0900 2.0398
88.1000 1.6078
88.1100 1.1420
88.1200 0.3459
88.1300 3.5484
88.1400 0.5433
88.1500 1.0066
88.1600 0.1490
88.1700 3.2669
88.1800 3.3893
88.1900 1.9742
88.2000 0.9693
88.2100 3.1057
88.2200 0.0000
88.2300 1.7773
88.2400 1.0659
88.2500 3.1489
88.2600 0.0000
88.2700 1.0127
88.2800 1.3067
88.2900 1.0722
88.3000 0.5984
88.3100 0.9505
88.3200 0.0000
88.3300 0.0000
88.3400 0.8057
88.3500 2.1136
88.3600 2.9667
88.3700 1.1676
88.3800 0.8151
88.3900 1.0112
88.4000 0.0000
88.4100 0.5014
88.4200 0.4812
88.4300 2.0019
88.4400 1.0226
88.4500 0.9856
88.4600 0.0000
88.4700 1.0193
88.4800 0.0000
88.4900 0.2803
88.5000 1.1324
88.5100 1.0896
88.5200 0.5467
88.5300 2.0232
88.5400 0.0000
88.5500 0.0000
88.5600 0.0000
88.5700 0.9969
88.5800 1.1220
88.5900 1.0759
88.6000 0.7587
88.6100 0.3930
88.6200 1.5932
88.6300 1.6140
88.6400 0.4251
88.6500 0.0000
88.6600 1.8871
88.6700 0.1290
88.6800 0.0000
88.6900 1.0269
88.7000 0.0000
88.7100 0.0000
88.7200 0.0000
88.7300 0.0000
88.7400 0.0000
88.7500 0.0000
88.7600 0.0000
88.7700 0.0000
88.7800 1.9266
88.7900 0.0000
88.8000 0.0000
88.8100 0.9969
88.8200 0.0000
88.8300 0.4672
88.8400 0.5168
88.8500 0.9948
88.8600 0.7022
88.8700 1.8875
88.8800 0.4988
88.8900 0.0406
88.9000 0.9451
88.9100 0.4607
88.9200 2.5880
88.9300 0.9809
88.9400 0.0000
88.9500 0.0000
88.9600 1.6896
88.9700 0.2899
88.9800 0.0000
88.9900 1.0328
89.0000 1.0762
89.0100 1.0574
89.0200 0.8220
89.0300 0.0000
89.0400 0.0000
89.0500 0.0000
89.0600 0.0000
89.0700 1.0028
89.0800 0.0000
89.0900 0.0000
89.1000 0.0000
89.1100 0.0000
89.1200 0.0000
89.1300 0.0000
89.1400 0.3910
89.1500 0.5839
89.1600 0.0000
89.1700 0.0000
89.1800 0.0000
89.1900 0.0000
89.2000 0.0000
89.2100 1.9830
89.2200 0.0000
89.2300 1.9613
89.2400 0.3498
89.2500 1.0772
89.2600 0.5270
89.2700 0.6259
89.2800 0.3705
89.2900 1.8400
89.3000 0.1839
89.3100 0.0059
89.3200 1.0196
89.3300 0.9853
89.3400 2.2527
89.3500 1.7305
89.3600 0.4814
89.3700 0.5263
89.3800 1.9840
89.3900 0.7753
89.4000 0.2436
89.4100 0.0000
89.4200 0.0000
89.4300 0.9808
89.4400 1.2162
89.4500 0.7562
89.4600 0.0000
89.4700 2.1765
89.4800 0.0000
89.4900 2.1457
89.5000 0.8985
89.5100 1.0127
89.5200 0.0000
89.5300 2.9589
89.5400 0.0000
89.5500 0.0000
89.5600 0.0000
89.5700 0.0000
89.5800 0.0000
89.5900 0.0000
89.6000 0.0000
89.6100 0.0000
89.6200 1.9407
89.6300 0.0000
89.6400 0.0000
89.6500 0.1983
89.6600 2.6378
89.6700 0.4099
89.6800 0.6049
89.6900 0.0000
89.7000 0.0000
89.7100 0.8385
89.7200 2.0174
89.7300 1.2698
89.7400 1.0495
89.7500 0.1571
89.7600 1.8171
89.7700 0.0000
89.7800 0.9523
89.7900 0.0000
89.8000 0.9760
89.8100 0.0000
89.8200 0.0000
89.8300 0.9247
89.8400 2.0957
89.8500 0.0983
89.8600 1.0565
89.8700 0.8152
89.8800 0.0000
89.8900 1.5285
89.9000 0.5203
89.9100 0.0000
89.9200 0.7330
89.9300 2.9592
89.9400 0.2873
89.9500 2.0239
89.9600 0.1383
89.9700 0.8396
89.9800 0.0000
89.9900 0.9782
90.0000 0.0000
90.0100 0.6029
90.0200 1.3384
90.0300 0.7968
90.0400 1.1274
90.0500 0.1074
90.0600 0.0000
90.0700 1.8832
90.0800 0.2733
90.0900 1.0709
90.1000 1.5942
90.1100 0.9694
90.1200 0.6410
90.1300 1.3439
90.1400 0.0000
90.1500 0.0000
90.1600 0.9353
90.1700 0.0163
90.1800 0.1157
90.1900 2.3185
90.2000 0.6354
90.2100 0.9505
90.2200 1.0028
90.2300 0.0000
90.2400 0.0000
90.2500 1.7696
90.2600 2.0504
90.2700 2.0240
90.2800 1.0256
90.2900 0.0000
90.3000 0.0000
90.3100 0.9505
90.3200 0.9886
90.3300 0.9876
90.3400 0.0000
90.3500 0.8455
90.3600 0.1821
90.3700 0.0000
90.3800 0.0000
90.3900 0.2136
90.4000 2.1506
90.4100 2.6276
90.4200 1.4887
90.4300 1.0656
90.4400 1.4560
90.4500 0.7664
90.4600 1.2156
90.4700 0.0000
90.4800 0.9695
90.4900 0.0000
90.5000 0.0000
90.5100 0.3226
90.5200 0.6459
90.5300 3.5607
90.5400 0.4921
90.5500 0.6924
90.5600 1.0807
90.5700 2.9307
90.5800 0.3060
90.5900 0.0000
90.6000 0.0000
90.6100 0.2752
90.6200 0.7182
90.6300 0.0000
90.6400 0.0000
90.6500 0.0000
90.6600 0.0000
90.6700 0.8613
90.6800 1.0627
90.6900 1.1087
90.7000 1.8932
90.7100 1.9644
90.7200 0.0000
90.7300 1.0811
90.7400 0.0000
90.7500 0.0000
90.7600 2.0685
90.7700 0.9166
90.7800 0.0000
90.7900 0.0000
90.8000 0.0000
90.8100 0.0000
90.8200 0.0000
90.8300 0.0000
90.8400 0.0000
90.8500 0.0000
90.8600 0.0000
90.8700 1.5828
90.8800 0.5816
90.8900 0.9843
90.9000 1.9605
90.9100 0.9863
90.9200 0.9588
90.9300 0.2826
90.9400 0.6670
90.9500 0.9927
90.9600 3.0493
90.9700 1.5768
90.9800 0.7584
90.9900 1.4414
91.0000 0.2269
91.0100 1.0536
91.0200 0.0000
91.0300 0.0000
91.0400 0.0000
91.0500 2.1982
91.0600 2.1922
91.0700 1.1541
91.0800 0.6247
91.0900 0.0000
91.1000 0.3040
91.1100 1.0315
91.1200 1.6790
91.1300 0.0000
91.1400 0.2786
91.1500 0.7168
91.1600 0.4813
91.1700 2.4312
91.1800 1.9123
91.1900 0.9931
91.2000 1.8395
91.2100 2.1789
91.2200 1.0647
91.2300 0.0000
91.2400 0.0000
91.2500 0.0000
91.2600 0.8426
91.2700 1.1993
91.2800 0.6168
91.2900 1.1849
91.3000 1.9300
91.3100 4.8395
91.3200 1.5489
91.3300 3.2182
91.3400 1.2515
91.3500 3.9050
91.3600 0.0000
91.3700 0.9863
91.3800 0.0000
91.3900 0.0000
91.4000 0.0000
91.4100 0.8990
91.4200 0.1860
91.4300 1.0212
91.4400 0.0000
91.4500 1.3762
91.4600 3.4823
91.4700 0.0000
91.4800 0.0000
91.4900 0.0000
91.5000 0.0000
91.5100 0.0000
91.5200 0.9979
91.5300 1.0096
91.5400 1.0994
91.5500 0.9930
91.5600 1.0116
91.5700 0.9459
91.5800 0.0000
91.5900 0.9670
91.6000 1.9749
91.6100 0.7747
91.6200 0.3066
91.6300 0.9011
91.6400 0.7373
91.6500 0.0002
91.6600 0.3216
91.6700 1.0078
91.6800 0.3732
91.6900 3.1315
91.7000 1.6416
91.7100 0.9886
91.7200 0.0000
91.7300 0.0000
91.7400 1.0073
91.7500 1.0047
91.7600 0.0000
91.7700 0.0000
91.7800 0.0000
91.7900 0.0000
91.8000 0.0000
91.8100 0.0000
91.8200 0.9833
91.8300 0.0000
91.8400 0.0000
91.8500 0.0000
91.8600 0.0870
91.8700 1.2221
91.8800 0.8243
91.8900 0.3525
91.9000 0.6281
91.9100 0.5346
91.9200 0.4404
91.9300 0.7158
91.9400 0.2553
91.9500 0.0000
91.9600 0.0000
91.9700 0.0000
91.9800 0.0000
91.9900 0.3065
92.0000 1.7014
92.0100 0.4854
92.0200 1.0915
92.0300 0.4163
92.0400 1.0128
92.0500 0.0000
92.0600 2.1386
92.0700 0.0610
92.0800 0.9794
92.0900 0.7155
92.1000 3.1639
92.1100 0.4242
92.1200 0.5483
92.1300 2.1728
92.1400 0.7239
92.1500 0.0000
92.1600 0.8979
92.1700 0.0908
92.1800 0.0000
92.1900 2.0553
92.2000 0.0000
92.2100 0.0000
92.2200 0.0000
92.2300 0.9760
92.2400 1.6434
92.2500 1.2882
92.2600 0.0000
92.2700 0.0000
92.2800 0.0000
92.2900 1.1160
92.3000 1.3006
92.3100 1.5496
92.3200 0.0000
92.3300 0.0000
92.3400 0.0000
92.3500 0.0000
92.3600 0.0000
92.3700 0.0000
92.3800 0.0000
92.3900 0.0000
92.4000 0.0000
92.4100 0.0000
92.4200 0.9795
92.4300 0.4554
92.4400 0.5415
92.4500 0.0000
92.4600 0.0000
92.4700 0.0000
92.4800 0.0000
92.4900 0.9539
92.5000 0.0000
92.5100 0.0000
92.5200 0.9503
92.5300 0.0000
92.5400 0.0000
92.5500 0.0000
92.5600 1.3332
92.5700 1.5952
92.5800 0.8580
92.5900 0.1252
92.6000 0.9746
92.6100 0.9929
92.6200 0.0000
92.6300 0.9579
92.6400 0.0000
92.6500 0.1390
92.6600 1.0006
92.6700 0.9730
92.6800 0.8767
92.6900 0.1968
92.7000 2.1410
92.7100 0.0000
92.7200 0.0000
92.7300 0.2891
92.7400 1.7467
92.7500 0.0000
92.7600 0.0000
92.7700 1.6192
92.7800 1.1101
92.7900 1.0926
92.8000 0.1437
92.8100 0.0000
92.8200 0.0000
92.8300 1.2059
92.8400 0.7423
92.8500 0.0000
92.8600 0.9774
92.8700 0.0000
92.8800 0.9826
92.8900 0.7414
92.9000 0.1866
92.9100 0.0000
92.9200 0.0000
92.9300 0.9518
92.9400 0.0000
92.9500 0.0000
92.9600 0.0000
92.9700 0.0000
92.9800 0.6331
92.9900 0.3432
93.0000 0.9831
93.0100 0.0000
93.0200 1.0184
93.0300 0.0000
93.0400 0.0000
93.0500 0.2958
93.0600 0.6608
93.0700 0.9986
93.0800 0.0000
93.0900 1.0771
93.1000 0.0000
93.1100 0.0000
93.1200 1.9302
93.1300 0.9664
93.1400 0.0000
93.1500 0.0000
93.1600 0.9764
93.1700 0.0000
93.1800 0.0000
93.1900 0.0000
93.2000 1.6699
93.2100 0.2695
93.2200 0.0000
93.2300 2.8617
93.2400 0.0000
93.2500 0.0000
93.2600 0.9897
93.2700 1.7325
93.2800 1.2218
93.2900 0.0000
93.3000 1.0240
93.3100 0.7326
93.3200 0.2269
93.3300 1.8991
93.3400 0.0472
93.3500 1.2535
93.3600 3.8464
93.3700 2.0829
93.3800 0.0000
93.3900 0.0000
93.4000 0.6049
93.4100 1.0712
93.4200 1.3200
93.4300 0.9991
93.4400 0.0000
93.4500 1.0732
93.4600 3.1000
93.4700 2.0298
93.4800 1.1158
93.4900 0.6428
93.5000 0.9647
93.5100 0.0000
93.5200 0.0000
93.5300 0.8681
93.5400 0.1651
93.5500 1.0650
93.5600 1.0510
93.5700 0.0000
93.5800 0.9445
93.5900 2.0813
93.6000 1.0005
93.6100 1.5677
93.6200 1.7520
93.6300 0.6127
93.6400 1.7247
93.6500 0.2385
93.6600 1.0048
93.6700 0.0000
93.6800 0.0000
93.6900 0.0000
93.7000 0.4796
93.7100 0.5984
93.7200 0.0000
93.7300 0.0000
93.7400 0.8081
93.7500 0.1745
93.7600 1.9898
93.7700 0.0000
93.7800 1.0125
93.7900 0.0000
93.8000 0.9688
93.8100 0.0000
93.8200 0.0000
93.8300 0.0000
93.8400 0.0000
93.8500 0.0000
93.8600 1.0152
93.8700 0.0490
93.8800 3.0823
93.8900 0.8601
93.9000 1.0701
93.9100 1.0332
93.9200 0.0000
93.9300 0.0000
93.9400 0.0000
93.9500 0.8453
93.9600 0.2051
93.9700 2.9446
93.9800 1.0113
93.9900 0.0000
94.0000 0.0000
94.0100 0.0000
94.0200 0.9595
94.0300 0.0000
94.0400 0.0000
94.0500 0.7453
94.0600 0.2502
94.0700 1.9513
94.0800 1.0248
94.0900 0.0000
94.1000 0.0000
94.1100 0.9284
94.1200 0.3934
94.1300 0.5674
94.1400 0.0000
94.1500 0.6782
94.1600 1.4240
94.1700 0.0000
94.1800 0.0000
94.1900 1.0232
94.2000 1.0478
94.2100 1.5055
94.2200 1.4696
94.2300 0.4485
94.2400 0.5531
94.2500 0.9925
94.2600 0.0000
94.2700 0.0000
94.2800 0.0000
94.2900 1.0148
94.3000 0.9824
94.3100 0.0000
94.3200 0.3022
94.3300 0.7143
94.3400 0.0000
94.3500 0.0000
94.3600 0.0000
94.3700 0.0000
94.3800 0.0000
94.3900 0.0000
94.4000 0.0000
94.4100 0.0000
94.4200 0.0000
94.4300 0.3336
94.4400 0.6603
94.4500 0.9787
94.4600 0.6239
94.4700 0.3843
94.4800 0.0000
94.4900 1.8958
94.5000 0.0990
94.5100 0.0000
94.5200 1.2612
94.5300 0.8434
94.5400 0.3511
94.5500 2.0016
94.5600 0.5081
94.5700 1.0008
94.5800 0.0000
94.5900 0.0000
94.6000 0.0000
94.6100 0.0000
94.6200 1.0477
94.6300 0.0000
94.6400 0.0000
94.6500 0.0000
94.6600 0.5410
94.6700 0.5267
94.6800 1.3267
94.6900 0.5808
94.7000 0.0000
94.7100 0.9620
94.7200 0.0000
94.7300 0.1732
94.7400 0.8609
94.7500 0.0000
94.7600 0.0000
94.7700 2.0116
94.7800 0.0000
94.7900 1.5171
94.8000 0.5502
94.8100 0.0000
94.8200 2.0343
94.8300 1.9333
94.8400 0.0000
94.8500 0.0000
94.8600 0.3716
94.8700 1.4913
94.8800 0.9626
94.8900 0.0000
94.9000 0.9577
94.9100 0.0000
94.9200 0.0000
94.9300 1.0179
94.9400 1.9546
94.9500 0.0000
94.9600 0.0000
94.9700 0.0000
94.9800 0.0000
94.9900 0.0000
95.0000 0.0000
95.0100 0.0000
95.0200 0.0000
95.0300 2.9833
95.0400 0.0007
95.0500 0.0000
95.0600 0.9615
95.0700 0.0000
95.0800 0.9766
95.0900 0.0000
95.1000 1.6516
95.1100 0.3339
95.1200 0.0000
95.1300 0.9573
95.1400 1.0114
95.1500 0.0000
95.1600 0.0000
95.1700 2.0127
95.1800 2.0296
95.1900 0.0000
95.2000 0.5809
95.2100 0.3808
95.2200 0.0000
95.2300 0.8831
95.2400 1.1375
95.2500 0.0192
95.2600 0.0000
95.2700 0.0000
95.2800 0.3726
95.2900 2.1029
95.3000 0.5306
95.3100 0.0000
95.3200 0.0000
95.3300 1.7478
95.3400 2.0589
95.3500 1.0210
95.3600 1.0013
95.3700 0.0000
95.3800 0.3024
95.3900 0.6952
95.4000 1.0652
95.4100 0.5813
95.4200 0.4102
95.4300 0.0000
95.4400 0.8216
95.4500 0.1233
95.4600 0.0000
95.4700 0.1478
95.4800 1.0629
95.4900 1.7195
95.5000 0.0000
95.5100 0.9914
95.5200 0.0000
95.5300 0.0000
95.5400 0.0000
95.5500 0.0000
95.5600 0.0000
95.5700 0.0973
95.5800 1.2893
95.5900 1.9019
95.6000 0.7406
95.6100 0.0000
95.6200 0.0000
95.6300 0.0000
95.6400 0.9547
95.6500 1.8240
95.6600 2.1076
95.6700 1.0770
95.6800 0.9401
95.6900 0.0000
95.7000 0.3109
95.7100 0.6495
95.7200 0.5299
95.7300 1.1180
95.7400 4.1859
95.7500 0.3067
95.7600 0.0000
95.7700 0.0000
95.7800 0.9811
95.7900 0.0000
95.8000 0.0000
95.8100 0.0000
95.8200 0.0000
95.8300 0.0000
95.8400 0.6503
95.8500 1.3470
95.8600 0.8059
95.8700 0.1604
95.8800 0.0000
95.8900 0.0000
95.9000 0.0000
95.9100 0.0000
95.9200 0.0000
95.9300 0.9625
95.9400 0.0000
95.9500 0.0000
95.9600 0.7837
95.9700 0.2236
95.9800 1.8756
95.9900 1.1737
96.0000 0.1499
96.0100 0.8135
96.0200 0.9817
96.0300 0.9054
96.0400 1.1581
96.0500 0.9768
96.0600 1.0171
96.0700 0.0000
96.0800 0.0000
96.0900 0.0049
96.1000 0.9498
96.1100 0.2058
96.1200 1.1253
96.1300 1.7032
96.1400 1.9059
96.1500 2.0024
96.1600 0.0000
96.1700 1.6644
96.1800 0.2313
96.1900 0.0000
96.2000 1.0747
96.2100 0.0000
96.2200 1.0027
96.2300 0.0000
96.2400 0.0000
96.2500 0.0000
96.2600 0.0000
96.2700 0.0000
96.2800 2.8041
96.2900 0.2036
96.3000 0.0000
96.3100 0.9657
96.3200 0.0000
96.3300 0.0000
96.3400 0.0000
96.3500 0.0000
96.3600 0.5707
96.3700 0.4599
96.3800 0.0000
96.3900 0.0000
96.4000 1.8878
96.4100 0.1391
96.4200 0.0000
96.4300 1.1104
96.4400 0.0000
96.4500 0.0000
96.4600 0.0000
96.4700 0.0000
96.4800 0.9532
96.4900 0.0000
96.5000 0.9914
96.5100 0.0000
96.5200 0.0000
96.5300 0.0000
96.5400 1.0192
96.5500 1.0399
96.5600 0.0000
96.5700 0.5264
96.5800 0.4556
96.5900 0.0000
96.6000 0.0000
96.6100 0.8855
96.6200 0.0837
96.6300 0.0000
96.6400 0.0000
96.6500 0.0000
96.6600 0.0000
96.6700 0.0000
96.6800 0.6199
96.6900 0.4593
96.7000 1.7245
96.7100 0.2441
96.7200 0.9651
96.7300 0.0456
96.7400 1.9192
96.7500 0.0000
96.7600 1.6271
96.7700 1.3410
96.7800 1.4253
96.7900 0.4534
96.8000 0.0000
96.8100 0.0000
96.8200 0.8843
96.8300 0.1027
96.8400 1.0036
96.8500 0.0000
96.8600 0.0000
96.8700 2.0431
96.8800 1.4430
96.8900 2.0870
96.9000 1.0816
96.9100 1.4059
96.9200 0.9110
96.9300 1.1290
96.9400 0.0672
96.9500 0.9487
96.9600 0.2103
96.9700 0.7567
96.9800 0.0000
96.9900 0.0000
97.0000 0.0000
97.0100 1.9357
97.0200 1.8134
97.0300 0.2116
97.0400 0.9704
97.0500 1.0724
97.0600 0.8941
97.0700 0.9732
97.0800 0.0000
97.0900 0.0000
97.1000 0.0000
97.1100 0.6050
97.1200 0.3503
97.1300 0.0000
97.1400 0.0000
97.1500 0.0000
97.1600 0.0000
97.1700 0.2071
97.1800 1.8902
97.1900 1.3671
97.2000 1.6206
97.2100 0.0000
97.2200 0.9787
97.2300 0.0000
97.2400 0.8435
97.2500 0.1368
97.2600 0.0000
97.2700 0.0000
97.2800 1.0576
97.2900 0.3465
97.3000 1.6299
97.3100 0.5075
97.3200 0.4661
97.3300 0.9980
97.3400 1.9061
97.3500 2.1675
97.3600 0.9519
97.3700 1.0081
97.3800 0.1865
97.3900 0.8383
97.4000 0.0000
97.4100 0.0000
97.4200 0.0000
97.4300 1.0764
97.4400 0.9924
97.4500 0.0000
97.4600 1.0738
97.4700 1.0661
97.4800 0.0000
97.4900 1.1584
97.5000 0.3030
97.5100 0.6597
97.5200 0.4982
97.5300 0.4913
97.5400 0.6981
97.5500 0.3103
97.5600 0.0000
97.5700 0.0000
97.5800 0.0000
97.5900 1.0157
97.6000 0.0000
97.6100 0.0000
97.6200 0.0000
97.6300 0.0000
97.6400 0.0000
97.6500 0.0000
97.6600 0.0000
97.6700 2.0777
97.6800 0.0137
97.6900 0.9751
97.7000 0.4051
97.7100 1.5941
97.7200 0.0000
97.7300 0.4942
97.7400 0.5231
97.7500 0.6757
97.7600 0.3260
97.7700 0.0000
97.7800 1.0038
97.7900 0.0942
97.8000 1.8491
97.8100 0.2368
97.8200 0.7461
97.8300 0.0000
97.8400 0.0000
97.8500 0.0000
97.8600 0.0000
97.8700 0.9638
97.8800 0.0000
97.8900 0.0000
97.9000 0.0901
97.9100 0.9057
97.9200 0.0000
97.9300 1.3322
97.9400 2.0585
97.9500 0.5029
97.9600 0.0000
97.9700 2.0746
97.9800 0.0000
97.9900 0.9328
98.0000 0.0943
98.0100 1.1063
98.0200 1.1142
98.0300 1.8992
98.0400 0.0000
98.0500 0.0000
98.0600 0.0000
98.0700 0.6804
98.0800 1.1393
98.0900 1.2393
98.1000 0.9832
98.1100 0.0217
98.1200 0.3433
98.1300 2.2405
98.1400 1.8458
98.1500 0.6311
98.1600 0.0000
98.1700 0.9565
98.1800 0.0000
98.1900 0.7933
98.2000 0.1649
98.2100 1.0943
98.2200 0.0000
98.2300 1.0083
98.2400 1.0391
98.2500 0.0000
98.2600 0.0000
98.2700 0.0000
98.2800 0.6727
98.2900 1.0776
98.3000 2.2669
98.3100 0.0000
98.3200 0.0000
98.3300 0.0000
98.3400 0.0000
98.3500 1.0158
98.3600 0.0000
98.3700 0.0000
98.3800 1.9451
98.3900 0.0000
98.4000 0.0000
98.4100 0.0000
98.4200 0.9624
98.4300 1.2638
98.4400 0.9911
98.4500 0.0000
98.4600 0.0000
98.4700 1.0049
98.4800 0.0000
98.4900 0.0000
98.5000 0.0000
98.5100 1.7837
98.5200 1.2740
98.5300 0.0000
98.5400 0.1344
98.5500 1.8941
98.5600 0.0000
98.5700 0.9600
98.5800 0.0000
98.5900 0.0000
98.6000 0.0000
98.6100 0.0000
98.6200 1.1687
98.6300 0.0000
98.6400 0.0000
98.6500 1.1342
98.6600 0.8885
98.6700 0.0000
98.6800 0.0000
98.6900 0.0000
98.7000 0.0000
98.7100 0.7498
98.7200 1.0972
98.7300 0.1688
98.7400 0.0000
98.7500 0.0000
98.7600 0.0000
98.7700 0.0000
98.7800 0.0000
98.7900 0.0000
98.8000 0.0000
98.8100 0.0000
98.8200 0.9559
98.8300 0.9800
98.8400 0.9989
98.8500 2.0730
98.8600 0.9060
98.8700 0.2579
98.8800 3.5028
98.8900 1.7910
98.9000 1.6495
98.9100 0.0000
98.9200 2.3836
98.9300 2.1129
98.9400 4.3522
98.9500 0.0018
98.9600 0.9527
98.9700 2.1116
98.9800 4.1973
98.9900 2.5373
99.0000 3.4474
99.0100 1.5525
99.0200 0.4397
99.0300 2.5266
99.0400 2.6027
99.0500 4.0879
99.0600 3.0110
99.0700 2.0803
99.0800 3.5091
99.0900 0.0991
99.1000 1.0838
99.1100 2.8012
99.1200 0.4850
99.1300 1.0035
99.1400 2.4731
99.1500 1.1848
99.1600 2.6818
99.1700 2.0682
99.1800 1.5346
99.1900 4.5526
99.2000 2.8905
99.2100 0.0000
99.2200 0.5381
99.2300 2.0603
99.2400 0.3338
99.2500 0.0000
99.2600 0.9024
99.2700 1.1501
99.2800 3.0676
99.2900 1.3309
99.3000 1.5716
99.3100 1.6721
99.3200 2.8997
99.3300 1.1673
99.3400 2.1019
99.3500 1.4950
99.3600 1.3127
99.3700 2.0336
99.3800 1.1044
99.3900 2.7371
99.4000 1.2671
99.4100 1.0688
99.4200 0.6855
99.4300 0.9969
99.4400 0.5958
99.4500 0.3541
99.4600 0.0000
99.4700 0.0000
99.4800 0.9917
99.4900 1.0742
99.5000 0.9507
99.5100 0.6304
99.5200 0.0000
99.5300 0.3152
99.5400 1.0049
99.5500 0.0000
99.5600 1.0241
99.5700 0.6850
99.5800 0.8963
99.5900 1.0044
99.6000 2.0475
99.6100 0.0000
99.6200 2.1612
99.6300 0.4138
99.6400 0.5697
99.6500 0.0000
99.6600 1.7121
99.6700 2.4471
99.6800 0.0000
99.6900 1.0324
99.7000 1.0158
99.7100 0.0000
99.7200 0.0000
99.7300 0.0000
99.7400 1.0250
99.7500 0.5555
99.7600 1.0902
99.7700 1.1000
99.7800 1.0962
99.7900 0.1631
99.8000 0.9855
99.8100 0.9875
99.8200 0.0000
99.8300 0.2988
99.8400 0.6694
99.8500 0.0000
99.8600 0.9605
99.8700 0.6639
99.8800 0.3036
99.8900 0.0000
99.9000 2.2858
99.9100 0.0048
99.9200 1.4482
99.9300 0.9137
99.9400 0.1824
99.9500 0.0000
99.9600 0.5279
99.9700 0.4575
99.9800 0.0000
99.9900 0.0000
100.0000 0.0000
100.0100 0.9649
100.0200 1.1083
100.0300 1.0663
100.0400 0.0000
100.0500 1.0799
100.0600 0.0000
100.0700 1.1620
100.0800 1.8501
100.0900 0.0000
100.1000 0.0000
100.1100 0.0000
100.1200 1.9868
100.1300 0.0000
100.1400 1.1795
100.1500 2.1291
100.1600 1.2736
100.1700 1.7126
100.1800 1.5564
100.1900 2.3466
100.2000 1.0237
100.2100 0.0000
100.2200 0.0000
100.2300 1.0459
100.2400 0.0000
100.2500 0.0000
100.2600 0.0000
100.2700 0.0000
100.2800 0.5763
100.2900 0.4596
100.3000 0.7205
100.3100 0.2464
100.3200 0.0000
100.3300 0.9788
100.3400 0.0000
100.3500 1.0052
100.3600 0.0000
100.3700 0.9764
100.3800 0.0000
100.3900 0.5970
100.4000 0.4069
100.4100 0.0000
100.4200 0.0000
100.4300 0.9818
100.4400 0.0000
100.4500 0.1598
100.4600 1.3354
100.4700 2.4476
100.4800 0.0000
100.4900 1.5248
100.5000 0.4618
100.5100 0.9617
100.5200 0.0000
100.5300 0.0000
100.5400 0.0000
100.5500 0.0000
100.5600 1.5291
100.5700 1.6122
100.5800 0.0000
100.5900 0.9588
100.6000 0.9816
100.6100 0.0000
100.6200 0.0000
100.6300 0.0000
100.6400 0.0000
100.6500 0.9808
100.6600 1.0052
100.6700 0.0000
100.6800 0.3112
100.6900 0.6258
100.7000 0.9999
100.7100 0.0000
100.7200 0.0000
100.7300 1.7951
100.7400 0.1974
100.7500 0.0000
100.7600 0.0000
100.7700 0.0000
100.7800 0.0000
100.7900 3.0222
100.8000 0.0000
100.8100 1.6814
100.8200 1.1010
100.8300 1.1506
100.8400 1.2822
100.8500 0.0000
100.8600 1.9681
100.8700 0.9292
100.8800 0.2145
100.8900 1.7467
100.9000 0.0000
100.9100 0.9548
100.9200 0.0000
100.9300 0.9992
100.9400 1.0283
100.9500 0.0000
100.9600 0.0000
100.9700 0.0000
100.9800 0.0000
100.9900 0.0000
101.0000 0.0000
101.0100 0.0000
101.0200 0.0000
101.0300 0.9843
101.0400 0.0000
101.0500 0.0000
101.0600 0.0000
101.0700 1.0060
101.0800 1.1471
101.0900 1.8628
101.1000 1.0835
101.1100 0.0000
101.1200 0.0000
101.1300 0.0000
101.1400 0.0000
101.1500 0.0000
101.1600 0.9968
101.1700 0.0000
101.1800 0.0000
101.1900 0.0000
101.2000 0.0000
101.2100 1.3416
101.2200 0.6537
101.2300 0.0000
101.2400 0.6127
101.2500 1.3186
101.2600 1.7831
101.2700 0.1888
101.2800 1.0130
101.2900 0.0000
101.3000 0.0000
101.3100 1.0331
101.3200 0.3829
101.3300 0.6425
101.3400 0.0000
101.3500 0.0000
101.3600 0.7368
101.3700 0.2443
101.3800 0.9490
101.3900 0.0343
101.4000 1.9468
101.4100 0.2392
101.4200 0.8337
101.4300 1.3396
101.4400 1.9813
101.4500 2.6379
101.4600 0.0000
101.4700 0.0000
101.4800 1.8515
101.4900 2.0243
101.5000 0.0210
101.5100 0.0000
101.5200 0.2532
101.5300 0.7159
101.5400 0.0000
101.5500 1.0963
101.5600 1.5472
101.5700 0.3561
101.5800 0.0000
101.5900 0.8906
101.6000 2.1126
101.6100 1.9476
101.6200 0.9902
101.6300 0.3286
101.6400 2.1149
101.6500 0.6207
101.6600 0.9155
101.6700 0.4298
101.6800 0.6304
101.6900 0.0000
101.7000 0.0000
101.7100 0.0545
101.7200 1.9663
101.7300 0.0000
101.7400 0.0000
101.7500 0.0000
101.7600 0.0000
101.7700 1.9590
101.7800 0.7578
101.7900 0.3013
101.8000 1.0928
101.8100 0.0000
101.8200 0.9583
101.8300 0.0000
101.8400 0.0000
101.8500 0.0000
101.8600 0.0000
101.8700 1.0061
101.8800 0.9761
101.8900 0.9653
101.9000 0.0000
101.9100 0.9670
101.9200 1.0143
101.9300 1.2595
101.9400 2.0135
101.9500 2.8365
101.9600 0.8109
101.9700 1.1450
101.9800 0.0000
101.9900 0.0000
102.0000 0.0000
102.0100 0.8743
102.0200 1.0758
102.0300 0.0187
102.0400 0.0000
102.0500 2.9483
102.0600 0.0000
102.0700 0.5290
102.0800 1.1925
102.0900 0.4578
102.1000 0.0000
102.1100 1.8893
102.1200 0.1703
102.1300 0.9744
102.1400 0.9684
102.1500 0.1997
102.1600 2.0600
102.1700 0.6765
102.1800 1.5219
102.1900 1.5141
102.2000 1.0761
102.2100 1.0089
102.2200 0.0000
102.2300 1.0310
102.2400 0.0000
102.2500 0.0000
102.2600 1.0169
102.2700 0.0000
102.2800 0.0000
102.2900 0.0000
102.3000 0.6247
102.3100 1.8165
102.3200 0.5645
102.3300 0.0000
102.3400 1.0717
102.3500 0.0977
102.3600 1.1111
102.3700 0.8127
102.3800 0.7425
102.3900 1.2157
102.4000 0.5531
102.4100 0.4208
102.4200 0.7677
102.4300 2.0684
102.4400 0.1478
102.4500 0.0448
102.4600 2.1294
102.4700 0.0000
102.4800 0.0000
102.4900 1.0025
102.5000 1.9683
102.5100 1.0642
102.5200 0.0000
102.5300 0.0000
102.5400 0.8299
102.5500 1.0701
102.5600 0.0000
102.5700 0.1718
102.5800 0.8232
102.5900 0.0000
102.6000 0.0000
102.6100 0.0000
102.6200 0.0000
102.6300 0.0000
102.6400 0.0000
102.6500 1.8450
102.6600 0.1435
102.6700 0.1209
102.6800 0.9156
102.6900 0.0000
102.7000 0.0000
102.7100 0.0000
102.7200 0.0000
102.7300 0.0000
102.7400 1.8319
102.7500 0.2185
102.7600 0.0000
102.7700 0.0599
102.7800 0.9289
102.7900 0.0000
102.8000 0.0000
102.8100 0.0000
102.8200 0.0000
102.8300 0.0000
102.8400 0.0000
102.8500 0.0000
102.8600 0.0000
102.8700 0.9918
102.8800 0.0956
102.8900 0.9966
102.9000 0.8099
102.9100 1.8234
102.9200 1.1451
102.9300 2.0266
102.9400 1.9047
102.9500 0.8581
102.9600 1.2723
102.9700 0.0000
102.9800 4.8333
102.9900 0.1322
103.0000 0.8312
103.0100 0.9430
103.0200 0.4221
103.0300 1.5062
103.0400 0.0000
103.0500 0.0000
103.0600 0.0000
103.0700 1.0104
103.0800 0.0000
103.0900 0.0000
103.1000 1.5974
103.1100 2.5115
103.1200 0.0000
103.1300 0.0000
103.1400 0.0000
103.1500 0.0000
103.1600 1.0680
103.1700 1.6858
103.1800 1.2567
103.1900 0.1196
103.2000 2.0871
103.2100 1.3198
103.2200 1.5153
103.2300 1.0181
103.2400 0.0000
103.2500 0.0000
103.2600 0.6660
103.2700 0.3050
103.2800 2.8647
103.2900 0.1261
103.3000 0.9856
103.3100 0.0000
103.3200 0.9827
103.3300 2.4120
103.3400 0.6265
103.3500 1.4742
103.3600 1.0605
103.3700 0.3648
103.3800 1.0211
103.3900 0.8645
103.4000 0.0824
103.4100 2.1094
103.4200 0.9122
103.4300 0.0000
103.4400 0.4022
103.4500 0.6426
103.4600 0.0000
103.4700 0.6561
103.4800 0.3259
103.4900 0.0000
103.5000 0.9382
103.5100 1.0622
103.5200 0.0000
103.5300 0.0000
103.5400 0.9725
103.5500 0.9999
103.5600 1.0283
103.5700 0.9580
103.5800 0.0000
103.5900 2.4316
103.6000 0.6045
103.6100 1.9935
103.6200 1.0376
103.6300 0.9314
103.6400 0.0000
103.6500 0.0000
103.6600 0.0000
103.6700 1.5812
103.6800 0.4613
103.6900 3.0695
103.7000 0.0000
103.7100 0.0000
103.7200 1.0252
103.7300 2.7530
103.7400 1.9163
103.7500 0.3294
103.7600 0.7291
103.7700 1.0134
103.7800 0.6131
103.7900 0.4184
103.8000 0.0000
103.8100 3.9190
103.8200 0.1174
103.8300 1.0059
103.8400 0.0000
103.8500 1.0218
103.8600 0.7095
103.8700 1.7756
103.8800 2.0738
103.8900 1.0893
103.9000 0.3731
103.9100 1.6759
103.9200 0.3641
103.9300 2.9948
103.9400 1.0335
103.9500 1.0665
103.9600 0.7955
103.9700 1.3852
103.9800 0.6028
103.9900 0.9580
104.0000 0.0000
104.0100 1.8248
104.0200 0.2337
104.0300 1.0271
104.0400 3.1952
104.0500 3.8206
104.0600 0.7569
104.0700 2.7837
104.0800 1.2063
104.0900 1.0067
104.1000 0.3120
104.1100 0.9336
104.1200 0.3825
104.1300 0.9904
104.1400 0.9806
104.1500 0.0852
104.1600 1.0767
104.1700 0.8251
104.1800 0.7510
104.1900 1.2778
104.2000 0.0000
104.2100 1.9917
104.2200 0.0000
104.2300 1.8155
104.2400 0.1575
104.2500 0.0638
104.2600 1.9998
104.2700 0.0000
104.2800 0.0000
104.2900 2.0132
104.3000 0.0000
104.3100 0.5992
104.3200 0.4040
104.3300 0.9807
104.3400 1.0031
104.3500 0.0000
104.3600 0.0000
104.3700 0.0000
104.3800 0.0000
104.3900 0.0000
104.4000 0.9721
104.4100 0.5278
104.4200 2.1680
104.4300 2.1285
104.4400 0.2608
104.4500 1.9102
104.4600 1.1675
104.4700 1.0743
104.4800 0.9180
104.4900 0.0000
104.5000 0.0000
104.5100 0.9781
104.5200 0.0000
104.5300 0.0000
104.5400 0.0000
104.5500 0.0000
104.5600 0.0000
104.5700 0.0499
104.5800 1.0789
104.5900 1.1778
104.6000 1.1090
104.6100 0.6873
104.6200 0.5147
104.6300 0.4684
104.6400 2.4525
104.6500 0.5926
104.6600 0.0000
104.6700 0.0000
104.6800 0.0905
104.6900 0.9167
104.7000 0.2670
104.7100 2.1036
104.7200 0.6389
104.7300 0.9690
104.7400 0.0000
104.7500 0.0000
104.7600 0.8298
104.7700 0.1522
104.7800 1.0234
104.7900 0.0000
104.8000 0.0000
104.8100 0.0000
104.8200 0.8068
104.8300 1.1543
104.8400 0.0000
104.8500 0.0000
104.8600 0.7591
104.8700 2.2191
104.8800 0.0000
104.8900 0.9678
104.9000 0.0000
104.9100 0.2715
104.9200 0.7688
104.9300 0.0000
104.9400 0.9649
104.9500 0.0000
104.9600 0.0000
104.9700 0.0000
104.9800 1.0526
104.9900 0.0000
105.0000 0.1120
105.0100 1.2999
105.0200 1.5457
105.0300 0.9656
105.0400 0.0000
105.0500 0.5620
105.0600 1.1469
105.0700 1.0968
105.0800 0.2199
105.0900 0.0000
105.1000 0.0000
105.1100 1.9110
105.1200 0.2441
105.1300 0.7594
105.1400 0.0000
105.1500 0.9967
105.1600 0.6139
105.1700 0.3750
105.1800 0.0000
105.1900 0.0000
105.2000 0.0000
105.2100 0.9375
105.2200 1.1578
105.2300 2.1446
105.2400 0.7572
105.2500 0.9832
105.2600 1.9968
105.2700 0.0000
105.2800 0.0000
105.2900 0.0000
105.3000 0.0000
105.3100 0.9398
105.3200 0.0000
105.3300 1.0072
105.3400 0.9780
105.3500 0.0000
105.3600 0.0000
105.3700 0.0000
105.3800 1.7335
105.3900 3.1185
105.4000 1.0485
105.4100 1.1489
105.4200 1.9618
105.4300 0.0000
105.4400 0.0000
105.4500 0.3854
105.4600 1.6612
105.4700 1.0223
105.4800 0.6277
105.4900 0.3509
105.5000 1.0420
105.5100 0.0000
105.5200 1.9894
105.5300 0.0000
105.5400 0.4453
105.5500 2.7038
105.5600 1.0014
105.5700 0.0000
105.5800 0.5804
105.5900 1.4060
105.6000 0.7848
105.6100 0.2289
105.6200 0.9626
105.6300 0.0000
105.6400 0.0000
105.6500 0.0000
105.6600 0.0000
105.6700 0.0000
105.6800 0.0000
105.6900 1.2091
105.7000 1.8497
105.7100 0.0000
105.7200 0.0000
105.7300 0.0013
105.7400 0.9941
105.7500 1.1117
105.7600 1.1238
105.7700 3.0909
105.7800 1.5998
105.7900 0.5443
105.8000 0.4146
105.8100 1.0535
105.8200 0.0000
105.8300 0.0000
105.8400 0.9972
105.8500 0.0000
105.8600 0.0000
105.8700 1.0033
105.8800 2.2626
105.8900 1.7582
105.9000 0.0000
105.9100 0.6727
105.9200 0.2878
105.9300 0.9109
105.9400 0.1135
105.9500 0.0000
105.9600 0.0000
105.9700 0.9543
105.9800 0.0000
105.9900 0.4859
106.0000 1.1310
106.0100 0.4503
106.0200 0.0000
106.0300 0.0000
106.0400 1.0913
106.0500 2.2512
106.0600 2.0711
106.0700 0.8533
106.0800 1.4127
106.0900 0.6473
106.1000 2.4999
106.1100 1.6133
106.1200 1.0667
106.1300 0.0000
106.1400 0.0000
106.1500 0.0000
106.1600 0.0000
106.1700 0.0000
106.1800 0.0000
106.1900 0.3415
106.2000 0.6529
106.2100 0.0000
106.2200 0.0000
106.2300 2.1646
106.2400 0.7679
106.2500 2.9322
106.2600 0.1759
106.2700 0.1053
106.2800 0.9631
106.2900 0.0000
106.3000 0.0000
106.3100 2.0728
106.3200 1.0765
106.3300 0.6978
106.3400 1.0944
106.3500 0.2354
106.3600 0.0000
106.3700 1.2013
106.3800 1.9910
106.3900 0.0000
106.4000 0.0000
106.4100 1.4889
106.4200 0.6196
106.4300 1.0017
106.4400 0.0000
106.4500 0.8238
106.4600 1.1466
106.4700 1.1145
106.4800 0.0000
106.4900 0.9900
106.5000 0.0000
106.5100 0.9516
106.5200 0.9381
106.5300 1.6507
106.5400 0.4388
106.5500 0.7460
106.5600 0.2599
106.5700 0.0000
106.5800 0.9198
106.5900 0.0000
106.6000 0.0000
106.6100 0.0000
106.6200 0.9926
106.6300 0.4677
106.6400 2.4554
106.6500 0.0000
106.6600 0.0000
106.6700 1.0935
106.6800 1.8462
106.6900 1.0917
106.7000 0.0000
106.7100 0.0000
106.7200 0.0000
106.7300 0.9580
106.7400 0.0000
106.7500 0.0000
106.7600 0.0000
106.7700 0.8106
106.7800 1.1602
106.7900 0.0000
106.8000 0.0968
106.8100 0.8570
106.8200 1.2908
106.8300 0.7134
106.8400 0.4880
106.8500 0.5306
106.8600 1.6150
106.8700 3.4027
106.8800 0.0000
106.8900 0.9812
106.9000 0.0945
106.9100 0.9243
106.9200 0.2368
106.9300 0.7743
106.9400 0.0000
106.9500 0.0000
106.9600 0.0000
106.9700 1.6524
106.9800 2.1312
106.9900 0.9051
107.0000 1.0973
107.0100 1.2751
107.0200 3.8806
107.0300 1.2419
107.0400 0.7170
107.0500 0.9350
107.0600 1.6181
107.0700 1.5770
107.0800 0.7274
107.0900 1.0263
107.1000 0.1491
107.1100 0.0000
107.1200 1.0436
107.1300 1.3160
107.1400 1.7700
107.1500 1.4523
107.1600 0.5994
107.1700 0.0000
107.1800 0.6976
107.1900 0.3157
107.2000 0.0000
107.2100 3.0579
107.2200 1.0087
107.2300 0.0000
107.2400 0.2468
107.2500 0.7217
107.2600 0.0000
107.2700 0.0000
107.2800 1.6466
107.2900 1.1014
107.3000 1.0547
107.3100 1.1800
107.3200 0.0000
107.3300 0.0000
107.3400 0.0632
107.3500 1.2642
107.3600 0.2463
107.3700 0.3892
107.3800 0.0000
107.3900 0.0000
107.4000 1.7288
107.4100 0.2327
107.4200 0.0000
107.4300 1.0467
107.4400 0.0000
107.4500 0.0000
107.4600 0.6468
107.4700 1.3042
107.4800 0.0000
107.4900 0.9910
107.5000 1.3520
107.5100 0.5547
107.5200 0.0000
107.5300 0.0000
107.5400 1.0096
107.5500 0.0000
107.5600 0.2878
107.5700 0.7570
107.5800 1.0320
107.5900 0.0000
107.6000 0.0000
107.6100 0.7256
107.6200 0.2452
107.6300 1.0867
107.6400 0.0000
107.6500 0.0000
107.6600 0.0000
107.6700 0.0000
107.6800 0.0000
107.6900 0.4934
107.7000 2.4272
107.7100 0.0000
107.7200 0.9971
107.7300 0.0000
107.7400 0.0000
107.7500 0.0000
107.7600 0.0000
107.7700 0.9393
107.7800 1.0101
107.7900 0.0000
107.8000 0.5340
107.8100 0.4532
107.8200 0.0000
107.8300 0.0000
107.8400 0.9179
107.8500 0.0815
107.8600 0.0000
107.8700 0.0000
107.8800 0.0000
107.8900 0.0000
107.9000 0.0000
107.9100 0.0000
107.9200 0.0000
107.9300 0.7650
107.9400 0.2310
107.9500 0.0000
107.9600 0.0000
107.9700 0.0000
107.9800 0.4842
107.9900 1.8585
108.0000 0.6472
108.0100 0.9511
108.0200 1.6211
108.0300 0.3926
108.0400 0.0000
108.0500 0.8752
108.0600 0.0964
108.0700 0.0000
108.0800 0.9658
108.0900 1.9098
108.1000 0.9812
108.1100 0.9897
108.1200 1.0780
108.1300 0.0000
108.1400 0.7346
108.1500 0.2445
108.1600 3.5115
108.1700 1.2540
108.1800 3.9632
108.1900 0.0000
108.2000 0.3003
108.2100 0.6480
108.2200 0.9758
108.2300 0.0000
108.2400 0.0000
108.2500 1.6816
108.2600 1.3896
108.2700 2.0150
108.2800 0.1172
108.2900 0.9510
108.3000 0.0000
108.3100 0.0000
108.3200 1.0032
108.3300 0.5317
108.3400 0.4460
108.3500 0.0000
108.3600 1.0215
108.3700 0.0000
108.3800 0.0000
108.3900 1.2052
108.4000 1.7207
108.4100 0.3288
108.4200 0.7711
108.4300 0.0000
108.4400 0.0000
108.4500 0.0000
108.4600 0.0000
108.4700 0.0000
108.4800 0.0000
108.4900 0.0000
108.5000 0.0000
108.5100 1.2450
108.5200 1.7937
108.5300 0.9692
108.5400 0.0000
108.5500 0.0000
108.5600 0.0000
108.5700 0.0000
108.5800 0.9185
108.5900 1.1291
108.6000 0.0000
108.6100 0.2192
108.6200 0.9538
108.6300 0.0000
108.6400 0.4639
108.6500 0.5230
108.6600 1.6643
108.6700 0.3335
108.6800 2.6936
108.6900 1.2347
108.7000 0.0575
108.7100 0.1237
108.7200 1.8031
108.7300 2.5549
108.7400 0.6757
108.7500 0.0000
108.7600 0.0000
108.7700 1.0105
108.7800 0.0000
108.7900 0.0000
108.8000 0.0000
108.8100 0.0000
108.8200 0.0000
108.8300 0.0000
108.8400 1.0049
108.8500 0.0000
108.8600 0.9701
108.8700 0.0000
108.8800 0.0000
108.8900 1.9327
108.9000 0.1832
108.9100 0.0000
108.9200 0.0000
108.9300 0.0000
108.9400 0.0000
108.9500 0.7836
108.9600 1.1938
108.9700 0.0000
108.9800 0.0000
108.9900 0.7336
109.0000 0.2144
109.0100 0.1478
109.0200 1.0728
109.0300 1.1381
109.0400 0.0424
109.0500 1.0976
109.0600 1.0555
109.0700 0.0000
109.0800 0.9874
109.0900 0.0000
109.1000 0.0000
109.1100 1.1140
109.1200 1.0432
109.1300 1.1725
109.1400 2.0027
109.1500 1.0843
109.1600 1.4252
109.1700 1.1991
109.1800 0.5513
109.1900 0.4204
109.2000 0.0000
109.2100 0.0000
109.2200 0.0000
109.2300 0.0000
109.2400 0.0000
109.2500 1.0690
109.2600 1.2762
109.2700 0.6996
109.2800 0.0000
109.2900 0.6071
109.3000 1.1490
109.3100 1.3191
109.3200 0.0000
109.3300 0.0000
109.3400 0.0000
109.3500 0.9720
109.3600 1.2291
109.3700 0.7477
109.3800 0.9439
109.3900 0.0000
109.4000 1.0402
109.4100 0.9965
109.4200 0.9576
109.4300 0.0000
109.4400 0.0213
109.4500 2.0518
109.4600 0.8625
109.4700 0.3005
109.4800 0.6854
109.4900 0.0000
109.5000 1.5674
109.5100 1.3993
109.5200 0.0000
109.5300 1.6837
109.5400 1.2814
109.5500 0.0000
109.5600 0.0000
109.5700 0.2523
109.5800 0.7620
109.5900 0.0000
109.6000 0.0000
109.6100 1.0101
109.6200 2.3875
109.6300 3.3671
109.6400 1.1628
109.6500 0.0000
109.6600 0.1927
109.6700 2.1454
109.6800 2.7461
109.6900 2.8949
109.7000 0.0000
109.7100 1.0409
109.7200 1.3146
109.7300 1.6434
109.7400 0.8681
109.7500 0.1491
109.7600 0.0000
109.7700 0.1350
109.7800 1.1663
109.7900 1.0420
109.8000 0.2772
109.8100 1.3521
109.8200 0.0000
109.8300 0.6535
109.8400 1.0804
109.8500 1.0497
109.8600 1.0544
109.8700 1.0077
109.8800 0.8449
109.8900 1.8350
109.9000 0.3355
109.9100 5.0755
109.9200 0.0000
109.9300 3.5761
109.9400 0.3798
109.9500 0.9485
109.9600 0.0000
109.9700 2.0342
109.9800 0.9956
109.9900 0.0000
110.0000 0.0000
110.0100 0.0000
110.0200 0.0000
110.0300 0.0000
110.0400 0.0000
110.0500 0.7648
110.0600 1.1944
110.0700 1.0323
110.0800 0.0336
110.0900 0.0000
110.1000 0.0000
110.1100 0.0000
110.1200 0.0000
110.1300 0.0000
110.1400 0.0000
110.1500 1.6529
110.1600 1.9749
110.1700 1.2310
110.1800 0.0819
110.1900 0.0971
110.2000 0.8629
110.2100 0.0000
110.2200 0.7522
110.2300 2.6292
110.2400 0.5196
110.2500 0.0000
110.2600 1.0246
110.2700 1.7445
110.2800 2.8558
110.2900 2.0850
110.3000 1.2801
110.3100 1.9243
110.3200 0.0000
110.3300 0.0000
110.3400 0.0000
110.3500 0.0000
110.3600 1.8185
110.3700 1.8858
110.3800 1.4400
110.3900 1.9367
110.4000 2.9999
110.4100 0.0000
110.4200 0.0000
110.4300 0.0000
110.4400 0.4561
110.4500 0.5332
110.4600 0.0000
110.4700 0.7560
110.4800 0.2598
110.4900 0.0000
110.5000 0.0258
110.5100 0.9169
110.5200 0.0000
110.5300 0.0000
110.5400 0.0000
110.5500 0.0000
110.5600 0.0000
110.5700 1.3833
110.5800 0.6269
110.5900 0.8922
110.6000 1.1145
110.6100 0.0292
110.6200 1.0056
110.6300 1.0116
110.6400 0.0000
110.6500 0.8631
110.6600 2.0473
110.6700 0.6108
110.6800 0.3555
110.6900 0.0000
110.7000 0.8643
110.7100 0.0892
110.7200 1.9400
110.7300 0.0000
110.7400 0.0000
110.7500 1.9597
110.7600 1.0001
110.7700 0.0000
110.7800 0.0000
110.7900 0.0000
110.8000 0.0000
110.8100 0.0000
110.8200 0.0000
110.8300 0.0000
110.8400 0.0000
110.8500 0.0000
110.8600 0.0000
110.8700 1.5509
110.8800 0.4808
110.8900 0.6794
110.9000 1.9880
110.9100 0.1835
110.9200 0.0000
110.9300 0.0000
110.9400 0.0000
110.9500 0.0000
110.9600 0.3694
110.9700 2.4352
110.9800 2.0856
110.9900 0.6432
111.0000 1.1225
111.0100 2.7002
111.0200 0.4588
111.0300 2.9545
111.0400 0.0000
111.0500 0.9777
111.0600 0.0000
111.0700 3.3930
111.0800 0.5694
111.0900 0.9973
111.1000 0.1404
111.1100 0.0000
111.1200 1.9043
111.1300 0.1258
111.1400 0.0682
111.1500 1.8982
111.1600 0.0000
111.1700 0.0000
111.1800 2.0243
111.1900 0.0000
111.2000 0.0000
111.2100 0.7040
111.2200 0.2612
111.2300 0.0000
111.2400 0.0000
111.2500 1.0802
111.2600 0.9849
111.2700 1.2379
111.2800 2.7039
111.2900 0.0000
111.3000 0.0000
111.3100 0.0000
111.3200 0.0000
111.3300 0.0000
111.3400 0.0000
111.3500 0.0000
111.3600 0.0000
111.3700 0.2217
111.3800 0.7032
111.3900 0.0000
111.4000 0.0000
111.4100 1.6143
111.4200 0.3852
111.4300 0.0000
111.4400 0.9124
111.4500 0.1009
111.4600 0.0000
111.4700 0.0000
111.4800 0.0000
111.4900 0.0000
111.5000 0.0000
111.5100 0.5468
111.5200 0.4275
111.5300 0.0000
111.5400 0.0000
111.5500 0.9735
111.5600 0.0635
111.5700 0.1242
111.5800 0.8489
111.5900 0.0000
111.6000 0.0000
111.6100 0.0000
111.6200 0.0000
111.6300 0.0000
111.6400 1.0168
111.6500 1.0051
111.6600 0.1335
111.6700 0.0000
111.6800 0.1712
111.6900 1.1967
111.7000 0.9546
111.7100 0.2870
111.7200 1.4395
111.7300 0.9134
111.7400 1.8195
111.7500 0.2573
111.7600 1.9103
111.7700 0.0796
111.7800 0.0000
111.7900 0.0000
111.8000 1.2978
111.8100 2.0885
111.8200 0.5858
111.8300 0.0000
111.8400 0.0000
111.8500 0.7414
111.8600 1.0181
111.8700 0.1244
111.8800 1.9893
111.8900 1.0238
111.9000 0.9683
111.9100 0.0000
111.9200 0.4207
111.9300 1.5824
111.9400 0.0000
111.9500 0.0000
111.9600 1.7821
111.9700 0.1882
111.9800 0.0000
111.9900 0.0944
112.0000 3.1689
112.0100 1.1185
112.0200 0.7211
112.0300 0.0000
112.0400 0.0000
112.0500 0.0000
112.0600 0.0000
112.0700 0.9268
112.0800 0.0000
112.0900 1.0501
112.1000 0.0000
112.1100 0.0000
112.1200 0.0000
112.1300 0.0000
112.1400 0.0000
112.1500 0.5882
112.1600 2.5313
112.1700 0.0000
112.1800 0.0000
112.1900 1.9477
112.2000 1.0953
112.2100 0.9041
112.2200 0.0000
112.2300 0.0000
112.2400 0.0000
112.2500 0.0000
112.2600 0.9929
112.2700 3.4226
112.2800 0.5276
112.2900 0.0000
112.3000 0.0000
112.3100 1.1434
112.3200 0.8398
112.3300 0.2964
112.3400 1.1186
112.3500 2.0942
112.3600 1.6208
112.3700 1.7858
112.3800 0.9424
112.3900 0.0000
112.4000 1.0436
112.4100 0.9464
112.4200 0.0000
112.4300 0.0000
112.4400 0.0000
112.4500 0.0000
112.4600 0.5160
112.4700 0.4600
112.4800 0.7476
112.4900 0.2944
112.5000 0.0000
112.5100 0.0007
112.5200 1.0134
112.5300 0.0000
112.5400 0.0000
112.5500 0.9897
112.5600 0.0000
112.5700 0.0000
112.5800 0.6864
112.5900 0.3514
112.6000 0.0000
112.6100 0.0000
112.6200 0.0000
112.6300 1.0474
112.6400 1.0151
112.6500 0.0000
112.6600 0.9441
112.6700 0.0000
112.6800 0.0000
112.6900 0.0000
112.7000 0.7508
112.7100 1.0609
112.7200 1.1061
112.7300 0.0000
112.7400 0.0000
112.7500 1.0530
112.7600 0.3478
112.7700 1.5915
112.7800 0.0000
112.7900 0.0000
112.8000 0.0000
112.8100 0.0000
112.8200 0.0000
112.8300 0.0213
112.8400 0.9802
112.8500 0.0000
112.8600 0.2964
112.8700 0.6772
112.8800 0.4870
112.8900 0.5003
112.9000 2.0268
112.9100 0.9648
112.9200 0.0000
112.9300 1.9402
112.9400 1.0051
112.9500 0.9645
112.9600 0.0000
112.9700 1.3615
112.9800 0.7214
112.9900 0.5194
113.0000 1.4162
113.0100 1.5025
113.0200 0.5832
113.0300 0.0000
113.0400 0.0000
113.0500 1.1847
113.0600 1.1155
113.0700 0.8076
113.0800 0.9940
113.0900 0.0000
113.1000 1.1277
113.1100 0.8510
113.1200 0.0000
113.1300 0.0000
113.1400 1.0261
113.1500 3.0468
113.1600 0.9803
113.1700 0.0000
113.1800 1.0701
113.1900 0.4389
113.2000 0.6074
113.2100 0.9906
113.2200 0.0000
113.2300 0.0000
113.2400 1.9843
113.2500 0.0000
113.2600 1.0705
113.2700 0.0000
113.2800 1.0036
113.2900 0.0000
113.3000 0.9464
113.3100 1.5180
113.3200 1.3980
113.3300 0.7733
113.3400 2.0622
113.3500 2.0088
113.3600 0.0927
113.3700 1.0071
113.3800 0.0000
113.3900 0.9987
113.4000 0.0000
113.4100 0.0000
113.4200 0.0000
113.4300 0.0000
113.4400 1.5555
113.4500 2.3230
113.4600 0.1297
113.4700 0.0000
113.4800 0.3270
113.4900 1.7571
113.5000 2.0348
113.5100 4.0328
113.5200 1.5642
113.5300 2.0069
113.5400 3.5368
113.5500 0.8404
113.5600 1.7908
113.5700 0.1727
113.5800 3.1205
113.5900 0.3780
113.6000 1.5581
113.6100 3.3669
113.6200 0.5983
113.6300 0.9967
113.6400 0.0000
113.6500 1.7869
113.6600 2.0350
113.6700 1.1750
113.6800 0.0000
113.6900 0.0000
113.7000 3.2301
113.7100 0.7770
113.7200 2.9639
113.7300 0.0000
113.7400 0.0000
113.7500 0.0000
113.7600 0.7834
113.7700 1.2533
113.7800 0.9992
113.7900 0.0967
113.8000 1.1175
113.8100 1.9280
113.8200 0.3571
113.8300 0.6177
113.8400 0.0000
113.8500 0.0000
113.8600 1.0329
113.8700 0.0000
113.8800 0.0000
113.8900 0.0000
113.9000 0.0000
113.9100 0.0000
113.9200 1.9933
113.9300 0.3830
113.9400 0.5635
113.9500 0.0000
113.9600 0.0000
113.9700 0.9716
113.9800 2.0294
113.9900 0.9693
114.0000 1.0637
114.0100 0.0000
114.0200 0.0000
114.0300 0.0000
114.0400 0.0000
114.0500 0.5020
114.0600 2.0561
114.0700 1.4215
114.0800 0.0000
114.0900 0.9480
114.1000 1.9923
114.1100 0.1051
114.1200 1.8707
114.1300 0.9845
114.1400 0.0000
114.1500 1.4633
114.1600 0.5088
114.1700 0.6546
114.1800 0.3223
114.1900 0.0000
114.2000 0.0000
114.2100 1.0753
114.2200 0.9537
114.2300 1.4238
114.2400 2.5481
114.2500 0.0000
114.2600 1.0101
114.2700 0.0000
114.2800 1.0570
114.2900 0.0000
114.3000 1.7235
114.3100 0.1974
114.3200 1.0072
114.3300 0.1789
114.3400 1.0762
114.3500 0.6958
114.3600 0.4555
114.3700 0.5270
114.3800 0.0000
114.3900 0.0000
114.4000 0.8307
114.4100 2.1386
114.4200 0.1364
114.4300 0.1155
114.4400 0.8134
114.4500 0.3059
114.4600 0.6709
114.4700 1.9085
114.4800 0.0000
114.4900 0.6944
114.5000 0.3109
114.5100 0.0000
114.5200 0.0000
114.5300 0.0000
114.5400 1.0642
114.5500 1.1014
114.5600 1.4117
114.5700 3.0919
114.5800 1.0861
114.5900 0.0000
114.6000 0.0000
114.6100 0.8232
114.6200 0.1765
114.6300 0.0121
114.6400 1.0853
114.6500 2.8731
114.6600 0.0000
114.6700 1.9962
114.6800 0.4566
114.6900 0.4864
114.7000 0.6626
114.7100 0.3219
114.7200 1.0087
114.7300 0.0000
114.7400 1.0480
114.7500 0.9784
114.7600 0.0000
114.7700 0.0000
114.7800 0.4489
114.7900 0.5996
114.8000 0.0924
114.8100 2.7577
114.8200 0.2859
114.8300 0.0000
114.8400 0.0000
114.8500 0.9705
114.8600 0.3726
114.8700 2.6834
114.8800 0.0000
114.8900 0.0000
114.9000 1.1333
114.9100 0.0000
114.9200 0.7344
114.9300 0.2452
114.9400 1.0250
114.9500 1.0458
114.9600 0.2467
114.9700 1.6917
114.9800 0.0000
114.9900 0.4092
115.0000 0.5877
115.0100 1.0448
115.0200 0.0000
115.0300 1.7872
115.0400 0.2050
115.0500 0.0000
115.0600 0.9899
115.0700 0.0000
115.0800 0.0000
115.0900 0.3453
115.1000 1.0997
115.1100 0.5781
115.1200 0.0000
115.1300 0.7112
115.1400 0.2604
115.1500 0.0000
115.1600 1.9699
115.1700 1.2496
115.1800 1.7625
115.1900 1.2679
115.2000 0.6930
115.2100 0.0000
115.2200 0.5664
115.2300 0.4076
115.2400 0.0000
115.2500 0.9934
115.2600 0.0000
115.2700 0.9551
115.2800 0.0000
115.2900 0.2398
115.3000 0.7499
115.3100 0.0000
115.3200 1.0113
115.3300 0.0000
115.3400 0.0000
115.3500 0.7947
115.3600 0.1880
115.3700 1.9984
115.3800 2.2720
115.3900 1.7899
115.4000 0.2691
115.4100 0.6898
115.4200 0.0000
115.4300 1.5278
115.4400 1.4148
115.4500 0.0000
115.4600 0.0000
115.4700 0.0000
115.4800 0.0000
115.4900 0.0000
115.5000 0.0000
115.5100 0.0000
115.5200 0.0000
115.5300 0.0000
115.5400 0.5785
115.5500 0.3822
115.5600 0.0000
115.5700 0.0000
115.5800 1.9189
115.5900 0.0967
115.6000 1.2815
115.6100 1.5796
115.6200 0.0000
115.6300 0.4360
115.6400 0.5292
115.6500 1.6181
115.6600 0.3622
115.6700 0.0000
115.6800 0.9771
115.6900 0.0178
115.7000 1.9625
115.7100 0.0000
115.7200 0.0000
115.7300 0.0000
115.7400 0.0000
115.7500 0.0000
115.7600 0.0000
115.7700 0.9864
115.7800 1.0020
115.7900 1.9890
115.8000 0.0910
115.8100 2.8347
115.8200 0.2392
115.8300 1.6887
115.8400 0.0000
115.8500 0.9814
115.8600 0.0000
115.8700 0.9961
115.8800 1.8063
115.8900 0.1894
115.9000 0.0000
115.9100 0.0000
115.9200 0.3729
115.9300 3.8537
115.9400 3.0684
115.9500 1.0641
115.9600 1.0843
115.9700 0.4250
115.9800 0.0000
115.9900 1.7061
116.0000 1.4141
116.0100 0.0000
116.0200 0.9801
116.0300 0.9107
116.0400 4.0277
116.0500 0.0000
116.0600 2.0087
116.0700 0.6424
116.0800 0.4193
116.0900 2.0825
116.1000 0.0000
116.1100 0.9446
116.1200 3.9192
116.1300 0.1756
116.1400 3.8166
116.1500 0.7237
116.1600 1.2854
116.1700 0.9476
116.1800 0.6547
116.1900 2.3937
116.2000 0.0000
116.2100 1.9270
116.2200 0.0984
116.2300 0.9220
116.2400 0.2082
116.2500 3.3293
116.2600 3.7937
116.2700 1.0982
116.2800 2.1527
116.2900 1.7826
116.3000 3.5421
116.3100 2.2023
116.3200 1.0835
116.3300 1.9722
116.3400 0.0000
116.3500 0.9333
116.3600 1.0315
116.3700 0.0000
116.3800 2.7796
116.3900 1.0866
116.4000 3.6980
116.4100 1.0710
116.4200 2.1608
116.4300 3.1174
116.4400 1.1114
116.4500 1.0707
116.4600 3.1101
116.4700 2.0735
116.4800 1.0774
116.4900 1.4765
116.5000 1.3053
116.5100 0.6605
116.5200 2.6001
116.5300 1.4539
116.5400 0.0836
116.5500 2.2113
116.5600 1.8114
116.5700 0.9913
116.5800 0.0000
116.5900 0.0000
116.6000 1.0809
116.6100 0.7337
116.6200 2.0900
116.6300 2.6857
116.6400 1.2390
116.6500 0.3202
116.6600 0.9857
116.6700 1.2337
116.6800 0.6730
116.6900 1.0314
116.7000 0.5634
116.7100 2.0690
116.7200 1.0907
116.7300 0.2586
116.7400 0.0000
116.7500 0.0000
116.7600 0.9703
116.7700 0.0000
116.7800 0.0000
116.7900 0.0000
116.8000 1.4939
116.8100 1.4838
116.8200 0.6817
116.8300 0.3140
116.8400 0.9822
116.8500 0.0000
116.8600 1.0014
116.8700 0.9350
116.8800 0.0000
116.8900 0.0000
116.9000 0.8682
116.9100 1.1060
116.9200 0.6065
116.9300 1.0956
116.9400 0.2825
116.9500 1.0541
116.9600 1.3232
116.9700 1.0487
116.9800 0.6436
116.9900 0.0000
117.0000 0.0000
117.0100 1.9835
117.0200 1.5952
117.0300 0.4218
117.0400 0.0000
117.0500 0.0000
117.0600 1.9115
117.0700 1.0988
117.0800 0.0000
117.0900 0.9681
117.1000 0.0000
117.1100 0.0000
117.1200 3.5650
117.1300 1.4994
117.1400 3.0635
117.1500 1.8260
117.1600 1.2074
117.1700 5.0322
117.1800 1.0946
117.1900 1.1726
117.2000 1.2967
117.2100 1.4935
117.2200 0.0000
117.2300 0.5294
117.2400 0.4248
117.2500 0.0000
117.2600 0.7987
117.2700 0.1544
117.2800 0.0000
117.2900 0.0000
117.3000 0.0000
117.3100 0.0000
117.3200 1.0445
117.3300 0.4830
117.3400 0.4854
117.3500 0.6809
117.3600 1.1473
117.3700 0.2337
117.3800 0.0000
117.3900 1.0026
117.4000 0.0000
117.4100 0.0000
117.4200 0.4727
117.4300 1.9161
117.4400 0.3426
117.4500 0.9125
117.4600 3.1328
117.4700 1.0471
117.4800 1.7812
117.4900 3.2622
117.5000 0.1047
117.5100 0.9075
117.5200 2.5537
117.5300 2.1886
117.5400 3.6325
117.5500 0.5017
117.5600 1.6789
117.5700 0.3368
117.5800 0.8017
117.5900 0.1320
117.6000 0.0944
117.6100 1.8980
117.6200 0.4596
117.6300 1.4864
117.6400 0.0000
117.6500 0.3499
117.6600 1.9253
117.6700 1.6472
117.6800 0.0983
117.6900 1.0139
117.7000 0.0000
117.7100 0.0916
117.7200 0.9773
117.7300 1.3491
117.7400 1.7810
117.7500 0.4676
117.7600 0.5417
117.7700 0.6333
117.7800 0.3379
117.7900 0.0000
117.8000 0.2903
117.8100 1.0450
117.8200 0.6208
117.8300 0.0000
117.8400 0.0000
117.8500 0.4087
117.8600 0.5949
117.8700 0.0000
117.8800 0.0000
117.8900 0.0000
117.9000 0.8861
117.9100 0.1217
117.9200 0.0000
117.9300 0.0000
117.9400 0.0000
117.9500 0.0000
117.9600 0.0000
117.9700 1.4725
117.9800 1.4521
117.9900 0.7424
118.0000 0.2763
118.0100 0.0000
118.0200 0.0000
118.0300 0.1019
118.0400 1.8016
118.0500 0.2899
118.0600 0.6924
118.0700 0.9815
118.0800 0.5568
118.0900 1.3927
118.1000 0.0000
118.1100 0.0000
118.1200 0.0000
118.1300 0.9625
118.1400 0.0000
118.1500 0.0000
118.1600 0.0000
118.1700 0.0000
118.1800 0.0000
118.1900 0.0000
118.2000 0.0000
118.2100 0.9567
118.2200 1.7254
118.2300 0.1921
118.2400 1.0552
118.2500 0.9477
118.2600 0.0000
118.2700 1.0111
118.2800 0.0000
118.2900 0.0000
118.3000 0.0000
118.3100 0.0000
118.3200 0.0000
118.3300 0.0000
118.3400 1.9945
118.3500 1.0671
118.3600 0.8719
118.3700 0.0000
118.3800 0.0000
118.3900 1.5656
118.4000 3.1110
118.4100 0.3988
118.4200 0.0000
118.4300 0.0000
118.4400 0.9528
118.4500 0.9588
118.4600 2.1311
118.4700 0.7682
118.4800 1.0241
118.4900 0.9908
118.5000 0.9702
118.5100 1.0328
118.5200 0.0000
118.5300 0.9918
118.5400 1.9758
118.5500 0.0792
118.5600 0.0000
118.5700 0.0000
118.5800 0.3068
118.5900 2.6593
118.6000 0.4662
118.6100 1.0717
118.6200 0.4181
118.6300 0.0000
118.6400 2.0044
118.6500 0.0000
118.6600 0.9882
118.6700 0.0000
118.6800 1.0849
118.6900 0.0000
118.7000 0.0000
118.7100 0.0000
118.7200 1.0389
118.7300 2.7298
118.7400 1.3048
118.7500 0.0000
118.7600 1.0670
118.7700 0.0000
118.7800 0.0000
118.7900 0.0000
118.8000 0.0000
118.8100 0.9963
118.8200 0.0000
118.8300 0.6137
118.8400 0.3191
118.8500 0.0000
118.8600 0.0000
118.8700 0.0353
118.8800 0.9602
118.8900 0.0000
118.9000 0.0000
118.9100 0.0000
118.9200 1.5269
118.9300 0.5319
118.9400 2.1094
118.9500 0.9204
118.9600 0.0000
118.9700 0.9262
118.9800 1.0188
118.9900 0.0000
119.0000 0.0000
119.0100 0.0000
119.0200 0.0000
119.0300 0.0000
119.0400 0.0000
119.0500 0.9709
119.0600 0.8129
119.0700 0.1677
119.0800 0.0169
119.0900 0.9342
119.1000 0.9842
119.1100 0.0000
119.1200 0.3870
119.1300 1.6001
119.1400 2.6931
119.1500 1.3624
119.1600 0.0000
119.1700 0.0000
119.1800 0.0000
119.1900 0.0000
119.2000 0.0000
119.2100 0.0000
119.2200 0.0000
119.2300 0.0000
119.2400 0.0000
119.2500 1.0018
119.2600 0.0000
119.2700 0.8076
119.2800 2.1640
119.2900 0.0000
119.3000 0.0000
119.3100 0.0000
119.3200 0.0000
119.3300 0.0000
119.3400 0.0000
119.3500 0.0000
119.3600 0.0000
119.3700 0.7735
119.3800 0.2507
119.3900 0.0000
119.4000 1.0226
119.4100 0.1273
119.4200 0.8315
119.4300 0.0000
119.4400 0.4132
119.4500 0.5802
119.4600 0.5975
119.4700 2.8251
119.4800 0.6240
119.4900 0.0000
119.5000 0.0000
119.5100 1.0016
119.5200 0.0000
119.5300 0.0000
119.5400 0.3646
119.5500 0.6485
119.5600 0.9653
119.5700 0.0000
119.5800 0.0000
119.5900 1.0508
119.6000 0.9248
119.6100 0.0000
119.6200 0.0000
119.6300 0.2140
119.6400 0.8079
119.6500 1.7865
119.6600 2.3010
119.6700 0.9702
119.6800 0.0000
119.6900 0.0000
119.7000 0.0000
119.7100 0.0000
119.7200 0.0000
119.7300 0.9740
119.7400 0.0000
119.7500 1.0099
119.7600 0.0000
119.7700 0.0000
119.7800 0.0000
119.7900 0.0000
119.8000 0.0000
119.8100 0.0000
119.8200 0.9891
119.8300 1.0442
119.8400 0.1939
119.8500 1.0981
119.8600 1.3105
119.8700 0.0000
119.8800 1.2307
119.8900 0.0000
119.9000 0.8409
119.9100 0.2684
119.9200 1.0001
119.9300 1.0573
119.9400 1.9731
119.9500 0.2390
119.9600 1.8520
119.9700 0.4909
119.9800 0.6811
119.9900 0.5997
