#Collected Data-7
#Intensity_unit=counts
#Attenuator_coefficient=1.000000
40.0000 3.5580
40.0100 1.0599
40.0200 0.3442
40.0300 0.0000
40.0400 2.0263
40.0500 0.0182
40.0600 0.9325
40.0700 0.0000
40.0800 0.0000
40.0900 0.0000
40.1000 0.0000
40.1100 0.6076
40.1200 0.4301
40.1300 0.7665
40.1400 1.0924
40.1500 0.1313
40.1600 0.0000
40.1700 0.9977
40.1800 0.2509
40.1900 1.7648
40.2000 0.0000
40.2100 1.0045
40.2200 0.0000
40.2300 1.0024
40.2400 0.0000
40.2500 0.0000
40.2600 0.0000
40.2700 0.0000
40.2800 0.1791
40.2900 0.7622
40.3000 1.0725
40.3100 0.0000
40.3200 0.0000
40.3300 1.0250
40.3400 0.0000
40.3500 0.0000
40.3600 0.0000
40.3700 0.0000
40.3800 0.0000
40.3900 0.0000
40.4000 0.0000
40.4100 0.0000
40.4200 0.0000
40.4300 0.6029
40.4400 0.3918
40.4500 0.7937
40.4600 0.2047
40.4700 1.0179
40.4800 2.0861
40.4900 0.0000
40.5000 0.0000
40.5100 0.0000
40.5200 0.0000
40.5300 0.0000
40.5400 1.3012
40.5500 0.7177
40.5600 0.9580
40.5700 0.0000
40.5800 2.0999
40.5900 0.1161
40.6000 0.8808
40.6100 0.3001
40.6200 0.6831
40.6300 0.0000
40.6400 0.0000
40.6500 0.9935
40.6600 2.0239
40.6700 0.0000
40.6800 0.0000
40.6900 0.0616
40.7000 0.9582
40.7100 0.5121
40.7200 1.8810
40.7300 1.0709
40.7400 1.0670
40.7500 1.4504
40.7600 1.6838
40.7700 2.0321
40.7800 0.1846
40.7900 0.0000
40.8000 0.0000
40.8100 0.0000
40.8200 0.0000
40.8300 0.0000
40.8400 0.0000
40.8500 0.0000
40.8600 0.0000
40.8700 0.0000
40.8800 0.9277
40.8900 0.0000
40.9000 1.0392
40.9100 2.1008
40.9200 1.2423
40.9300 1.2056
40.9400 1.4972
40.9500 3.1333
40.9600 0.0000
40.9700 1.0553
40.9800 1.7372
40.9900 0.4402
41.0000 0.9669
41.0100 0.0131
41.0200 0.9951
41.0300 0.0000
41.0400 0.0000
41.0500 0.0000
41.0600 0.5823
41.0700 1.1319
41.0800 0.3601
41.0900 1.0031
41.1000 0.0000
41.1100 0.0239
41.1200 0.9339
41.1300 0.0000
41.1400 1.0412
41.1500 0.0000
41.1600 0.9608
41.1700 0.5853
41.1800 1.1315
41.1900 1.3787
41.2000 0.9699
41.2100 0.0000
41.2200 0.0000
41.2300 0.0000
41.2400 0.0000
41.2500 0.3896
41.2600 1.6555
41.2700 0.5486
41.2800 1.0842
41.2900 0.3576
41.3000 0.8387
41.3100 1.1530
41.3200 0.0000
41.3300 0.0000
41.3400 0.0000
41.3500 0.0000
41.3600 0.3871
41.3700 1.0908
41.3800 0.5130
41.3900 0.9574
41.4000 0.0000
41.4100 0.8044
41.4200 0.1344
41.4300 0.0000
41.4400 0.0000
41.4500 0.0000
41.4600 0.0000
41.4700 0.0000
41.4800 0.0000
41.4900 0.0000
41.5000 0.0000
41.5100 0.0000
41.5200 0.0000
41.5300 0.0000
41.5400 0.0000
41.5500 0.1793
41.5600 0.8261
41.5700 0.0000
41.5800 0.0000
41.5900 0.0000
41.6000 0.9930
41.6100 0.0000
41.6200 0.0000
41.6300 0.0000
41.6400 2.0518
41.6500 0.9405
41.6600 2.0081
41.6700 0.0000
41.6800 0.0000
41.6900 0.4958
41.7000 0.4961
41.7100 0.0000
41.7200 0.7413
41.7300 2.0159
41.7400 1.0897
41.7500 0.0000
41.7600 0.0000
41.7700 0.2513
41.7800 0.7341
41.7900 0.0000
41.8000 0.0000
41.8100 0.9888
41.8200 0.0000
41.8300 0.0000
41.8400 0.0000
41.8500 0.0000
41.8600 1.0701
41.8700 0.0000
41.8800 1.0368
41.8900 0.3874
41.9000 1.0885
41.9100 1.0943
41.9200 0.4276
41.9300 0.0000
41.9400 1.0602
41.9500 0.0000
41.9600 0.0000
41.9700 0.0000
41.9800 0.0000
41.9900 0.0000
42.0000 0.0000
42.0100 0.9777
42.0200 1.5991
42.0300 0.3681
42.0400 0.0000
42.0500 2.5599
42.0600 1.1119
42.0700 0.3428
42.0800 0.1715
42.0900 1.7991
42.1000 1.1141
42.1100 1.8968
42.1200 0.5430
42.1300 0.4287
42.1400 0.7305
42.1500 0.2466
42.1600 0.0000
42.1700 0.0000
42.1800 0.0398
42.1900 0.2782
42.2000 0.1997
42.2100 0.4364
42.2200 0.0000
42.2300 0.0000
42.2400 1.7275
42.2500 1.2893
42.2600 0.0000
42.2700 0.0000
42.2800 0.0000
42.2900 0.0000
42.3000 1.9931
42.3100 0.0000
42.3200 0.0000
42.3300 0.0000
42.3400 0.0000
42.3500 0.0000
42.3600 0.0000
42.3700 0.3148
42.3800 0.0481
42.3900 4.7581
42.4000 1.0661
42.4100 0.7989
42.4200 1.0396
42.4300 0.0000
42.4400 0.0000
42.4500 0.0000
42.4600 1.0255
42.4700 0.8641
42.4800 0.1376
42.4900 0.0000
42.5000 0.1689
42.5100 2.0606
42.5200 1.0258
42.5300 1.0014
42.5400 1.9506
42.5500 0.0000
42.5600 2.0455
42.5700 0.0000
42.5800 0.0000
42.5900 0.9794
42.6000 0.0046
42.6100 0.0000
42.6200 1.2835
42.6300 1.1053
42.6400 0.6426
42.6500 0.0000
42.6600 0.9654
42.6700 0.9683
42.6800 0.0000
42.6900 0.0000
42.7000 1.0531
42.7100 0.0000
42.7200 0.0000
42.7300 0.0000
42.7400 0.0000
42.7500 1.9943
42.7600 0.5813
42.7700 0.3875
42.7800 0.0000
42.7900 0.0000
42.8000 0.9692
42.8100 0.0000
42.8200 0.1684
42.8300 0.8435
42.8400 0.0000
42.8500 0.0000
42.8600 0.0000
42.8700 0.9787
42.8800 1.4609
42.8900 0.5328
42.9000 0.0000
42.9100 1.0201
42.9200 0.1107
42.9300 2.8250
42.9400 0.9923
42.9500 0.0000
42.9600 0.0000
42.9700 0.0000
42.9800 0.0000
42.9900 0.0000
43.0000 0.8087
43.0100 3.1567
43.0200 0.0823
43.0300 0.0000
43.0400 0.0000
43.0500 0.0000
43.0600 0.9436
43.0700 1.0417
43.0800 0.9378
43.0900 1.6902
43.1000 0.8857
43.1100 0.0000
43.1200 0.3080
43.1300 0.0929
43.1400 0.9098
43.1500 1.0114
43.1600 0.3837
43.1700 0.6373
43.1800 0.5766
43.1900 1.4039
43.2000 0.0000
43.2100 0.0000
43.2200 0.0000
43.2300 1.1273
43.2400 1.0076
43.2500 0.5424
43.2600 1.9900
43.2700 1.3516
43.2800 0.0000
43.2900 0.5878
43.3000 1.0709
43.3100 0.2968
43.3200 0.8599
43.3300 1.0985
43.3400 0.0196
43.3500 0.0000
43.3600 0.2659
43.3700 1.1129
43.3800 1.1175
43.3900 1.1202
43.4000 1.1136
43.4100 0.3580
43.4200 0.0000
43.4300 0.8860
43.4400 0.0901
43.4500 0.9190
43.4600 0.0000
43.4700 0.0000
43.4800 0.7990
43.4900 1.2164
43.5000 0.0000
43.5100 0.0000
43.5200 0.0000
43.5300 0.0000
43.5400 0.0000
43.5500 0.9828
43.5600 0.0000
43.5700 0.0000
43.5800 1.3285
43.5900 0.6625
43.6000 0.0000
43.6100 1.5813
43.6200 1.7978
43.6300 1.3097
43.6400 0.1729
43.6500 0.0011
43.6600 1.0712
43.6700 0.8951
43.6800 0.2706
43.6900 0.6812
43.7000 0.9195
43.7100 2.0063
43.7200 0.6642
43.7300 0.3393
43.7400 0.9156
43.7500 0.0000
43.7600 0.0000
43.7700 0.0000
43.7800 0.0000
43.7900 0.3217
43.8000 1.6377
43.8100 0.0000
43.8200 1.6292
43.8300 0.3769
43.8400 0.0000
43.8500 0.0000
43.8600 0.0000
43.8700 1.0453
43.8800 0.0000
43.8900 0.0000
43.9000 0.0000
43.9100 0.8646
43.9200 1.0340
43.9300 0.0000
43.9400 0.0000
43.9500 0.0000
43.9600 0.9960
43.9700 0.0218
43.9800 0.9813
43.9900 0.9885
44.0000 0.0000
44.0100 0.0000
44.0200 0.0000
44.0300 0.0000
44.0400 0.0000
44.0500 1.7263
44.0600 0.2170
44.0700 0.0000
44.0800 0.1195
44.0900 1.8684
44.1000 1.5263
44.1100 2.1934
44.1200 1.8498
44.1300 0.6007
44.1400 0.5963
44.1500 0.3556
44.1600 0.7976
44.1700 0.1808
44.1800 0.0000
44.1900 0.0000
44.2000 0.0000
44.2100 0.0000
44.2200 0.0000
44.2300 1.0147
44.2400 2.1142
44.2500 1.0031
44.2600 0.0000
44.2700 0.0000
44.2800 0.9348
44.2900 1.0047
44.3000 1.1059
44.3100 1.7794
44.3200 1.0151
44.3300 1.0089
44.3400 0.9950
44.3500 0.5874
44.3600 1.0781
44.3700 1.3213
44.3800 0.0000
44.3900 1.0329
44.4000 2.9310
44.4100 0.0000
44.4200 1.4976
44.4300 1.8034
44.4400 1.0880
44.4500 2.4892
44.4600 0.6758
44.4700 1.8585
44.4800 3.9914
44.4900 6.1802
44.5000 7.3337
44.5100 3.4275
44.5200 5.8319
44.5300 14.4226
44.5400 12.7071
44.5500 14.1688
44.5600 13.4553
44.5700 13.8844
44.5800 29.2111
44.5900 24.9901
44.6000 26.9533
44.6100 18.9587
44.6200 18.1752
44.6300 22.7617
44.6400 24.3032
44.6500 22.1868
44.6600 18.0596
44.6700 18.3580
44.6800 13.1006
44.6900 7.8681
44.7000 8.7367
44.7100 11.3030
44.7200 10.4031
44.7300 4.0931
44.7400 4.0202
44.7500 4.0398
44.7600 3.2022
44.7700 0.5238
44.7800 1.6544
44.7900 0.3345
44.8000 2.6561
44.8100 0.4450
44.8200 1.0136
44.8300 0.0000
44.8400 1.2077
44.8500 0.7315
44.8600 2.0065
44.8700 1.0278
44.8800 1.9519
44.8900 0.6841
44.9000 0.2848
44.9100 0.8703
44.9200 0.1023
44.9300 3.9696
44.9400 0.0000
44.9500 1.9843
44.9600 0.0000
44.9700 0.9509
44.9800 0.0000
44.9900 0.0000
45.0000 1.0212
45.0100 0.0000
45.0200 0.0000
45.0300 1.0310
45.0400 0.0000
45.0500 0.0000
45.0600 0.0000
45.0700 0.9795
45.0800 0.0000
45.0900 0.0000
45.1000 0.6826
45.1100 0.3091
45.1200 0.0000
45.1300 0.0000
45.1400 0.0000
45.1500 1.9116
45.1600 0.0000
45.1700 0.9710
45.1800 0.0000
45.1900 0.5339
45.2000 1.1305
45.2100 0.3907
45.2200 0.0000
45.2300 0.9062
45.2400 1.1065
45.2500 1.0043
45.2600 0.0000
45.2700 0.2889
45.2800 0.6970
45.2900 0.0000
45.3000 0.0000
45.3100 0.0000
45.3200 0.9728
45.3300 0.8631
45.3400 0.1412
45.3500 0.0000
45.3600 0.0000
45.3700 0.0000
45.3800 0.0000
45.3900 0.4041
45.4000 0.5451
45.4100 2.0032
45.4200 0.0000
45.4300 0.0000
45.4400 0.0000
45.4500 0.0000
45.4600 0.0000
45.4700 0.0000
45.4800 0.0000
45.4900 0.0000
45.5000 1.0146
45.5100 0.5429
45.5200 0.4292
45.5300 0.0000
45.5400 0.0000
45.5500 0.0000
45.5600 0.9708
45.5700 0.0000
45.5800 0.0000
45.5900 0.2974
45.6000 0.6507
45.6100 0.9426
45.6200 0.0000
45.6300 0.6887
45.6400 1.3190
45.6500 0.9790
45.6600 0.9763
45.6700 0.0000
45.6800 0.1641
45.6900 0.8413
45.7000 0.0000
45.7100 0.4450
45.7200 1.0716
45.7300 1.1113
45.7400 0.3848
45.7500 0.0000
45.7600 0.0000
45.7700 0.0000
45.7800 0.0000
45.7900 0.1940
45.8000 0.7687
45.8100 0.0000
45.8200 1.0067
45.8300 0.0000
45.8400 0.0000
45.8500 1.0326
45.8600 0.0000
45.8700 0.0000
45.8800 0.0000
45.8900 0.1421
45.9000 0.8345
45.9100 1.0883
45.9200 2.3430
45.9300 0.5842
45.9400 0.0000
45.9500 0.0000
45.9600 0.0000
45.9700 0.0000
45.9800 0.0000
45.9900 1.0136
46.0000 0.0000
46.0100 0.0000
46.0200 0.0000
46.0300 1.4232
46.0400 0.5389
46.0500 0.0000
46.0600 0.9884
46.0700 0.9792
46.0800 0.9616
46.0900 2.1282
46.1000 0.9676
46.1100 0.0000
46.1200 1.0295
46.1300 0.0000
46.1400 1.1069
46.1500 0.0000
46.1600 0.9929
46.1700 1.0724
46.1800 0.0000
46.1900 0.0000
46.2000 0.0000
46.2100 0.0000
46.2200 0.0000
46.2300 0.3748
46.2400 0.6812
46.2500 1.0043
46.2600 0.6424
46.2700 0.3644
46.2800 0.9570
46.2900 0.0000
46.3000 0.0000
46.3100 0.0000
46.3200 0.9844
46.3300 0.0000
46.3400 0.0000
46.3500 0.5066
46.3600 0.5323
46.3700 0.0000
46.3800 0.0000
46.3900 0.5617
46.4000 0.0875
46.4100 0.3246
46.4200 0.0000
46.4300 1.0269
46.4400 1.0639
46.4500 0.4543
46.4600 1.5916
46.4700 0.0000
46.4800 1.0158
46.4900 0.0000
46.5000 0.0000
46.5100 0.9913
46.5200 0.0021
46.5300 0.1892
46.5400 0.8240
46.5500 0.3722
46.5600 0.6190
46.5700 0.0000
46.5800 0.0000
46.5900 0.0000
46.6000 0.8157
46.6100 1.0815
46.6200 0.0577
46.6300 1.0634
46.6400 0.8737
46.6500 0.0000
46.6600 1.3997
46.6700 0.5777
46.6800 0.0000
46.6900 0.0000
46.7000 0.0000
46.7100 0.0000
46.7200 1.0297
46.7300 0.9871
46.7400 0.0000
46.7500 0.0000
46.7600 0.0000
46.7700 0.0000
46.7800 0.9599
46.7900 0.0000
46.8000 0.0000
46.8100 0.0000
46.8200 0.9370
46.8300 0.0959
46.8400 2.1102
46.8500 0.0000
46.8600 0.1384
46.8700 0.0000
46.8800 0.0000
46.8900 1.0087
46.9000 1.6675
46.9100 0.3344
46.9200 0.0000
46.9300 0.0000
46.9400 1.0119
46.9500 0.0000
46.9600 0.0000
46.9700 0.0000
46.9800 0.0000
46.9900 0.0000
47.0000 0.0000
47.0100 0.0000
47.0200 0.0000
47.0300 0.0000
47.0400 0.0008
47.0500 1.9540
47.0600 0.0000
47.0700 0.0000
47.0800 1.0532
47.0900 0.0000
47.1000 0.0000
47.1100 0.0000
47.1200 2.0254
47.1300 0.0000
47.1400 0.9416
47.1500 0.0922
47.1600 0.9105
47.1700 0.2214
47.1800 2.0847
47.1900 0.7644
47.2000 0.0000
47.2100 0.5991
47.2200 0.3903
47.2300 0.0000
47.2400 0.0000
47.2500 0.9535
47.2600 0.0000
47.2700 0.0000
47.2800 0.0000
47.2900 0.0000
47.3000 0.0000
47.3100 0.5580
47.3200 0.4575
47.3300 0.0000
47.3400 0.8187
47.3500 1.0782
47.3600 1.0545
47.3700 0.9913
47.3800 1.0338
47.3900 0.0000
47.4000 1.0197
47.4100 0.0000
47.4200 0.5912
47.4300 0.4145
47.4400 0.0000
47.4500 0.0000
47.4600 0.0000
47.4700 1.0404
47.4800 0.0000
47.4900 0.0000
47.5000 0.0000
47.5100 1.4582
47.5200 0.5428
47.5300 1.6388
47.5400 1.8386
47.5500 2.2236
47.5600 0.3765
47.5700 0.0000
47.5800 0.0000
47.5900 0.0000
47.6000 0.0000
47.6100 1.4601
47.6200 0.6214
47.6300 0.0000
47.6400 0.6643
47.6500 2.8430
47.6600 1.4680
47.6700 0.8804
47.6800 0.0486
47.6900 3.0016
47.7000 0.0000
47.7100 1.9195
47.7200 0.0000
47.7300 0.0000
47.7400 0.0000
47.7500 0.0000
47.7600 0.0000
47.7700 0.0000
47.7800 1.0608
47.7900 0.0000
47.8000 0.0000
47.8100 0.0000
47.8200 1.3641
47.8300 2.6097
47.8400 1.0695
47.8500 0.9544
47.8600 0.7084
47.8700 0.2474
47.8800 0.0000
47.8900 1.9500
47.9000 0.0000
47.9100 0.0000
47.9200 0.0000
47.9300 0.9578
47.9400 0.5607
47.9500 3.1363
47.9600 0.4029
47.9700 0.9874
47.9800 0.0000
47.9900 0.9364
48.0000 0.0652
48.0100 0.9750
48.0200 0.0000
48.0300 0.0000
48.0400 0.9050
48.0500 0.0000
48.0600 0.0000
48.0700 0.0000
48.0800 0.0000
48.0900 1.8028
48.1000 2.1495
48.1100 1.1173
48.1200 0.8456
48.1300 1.0009
48.1400 0.0000
48.1500 4.9348
48.1600 0.0000
48.1700 0.0000
48.1800 1.7061
48.1900 1.2654
48.2000 0.0000
48.2100 0.9568
48.2200 0.0000
48.2300 0.0000
48.2400 0.3322
48.2500 1.7135
48.2600 0.0000
48.2700 0.0000
48.2800 1.4409
48.2900 0.6009
48.3000 0.0000
48.3100 3.0445
48.3200 1.0248
48.3300 2.0072
48.3400 0.0000
48.3500 0.0000
48.3600 0.0000
48.3700 2.0797
48.3800 0.6515
48.3900 0.3513
48.4000 0.0000
48.4100 0.0000
48.4200 0.0000
48.4300 0.0000
48.4400 1.0009
48.4500 0.0000
48.4600 0.0000
48.4700 0.4822
48.4800 0.4837
48.4900 0.0000
48.5000 0.0000
48.5100 0.0000
48.5200 1.9065
48.5300 0.0269
48.5400 0.0000
48.5500 0.2446
48.5600 0.7169
48.5700 0.0000
48.5800 1.5412
48.5900 0.4797
48.6000 1.0095
48.6100 0.0000
48.6200 0.0000
48.6300 0.9801
48.6400 0.9522
48.6500 0.0000
48.6600 0.9960
48.6700 0.0000
48.6800 0.4909
48.6900 0.5286
48.7000 0.0000
48.7100 1.0226
48.7200 0.0000
48.7300 0.0000
48.7400 0.9353
48.7500 0.0000
48.7600 0.0000
48.7700 1.3388
48.7800 2.6454
48.7900 2.0599
48.8000 0.9565
48.8100 0.0000
48.8200 1.7116
48.8300 1.1594
48.8400 0.9930
48.8500 0.0082
48.8600 0.1740
48.8700 0.7894
48.8800 0.0000
48.8900 0.0000
48.9000 0.0000
48.9100 0.0000
48.9200 0.7481
48.9300 1.3377
48.9400 1.9378
48.9500 0.0308
48.9600 0.9905
48.9700 0.2382
48.9800 0.8499
48.9900 1.1133
49.0000 1.0134
49.0100 0.5938
49.0200 1.3559
49.0300 0.7052
49.0400 0.1928
49.0500 0.0000
49.0600 2.8756
49.0700 1.0095
49.0800 2.2102
49.0900 0.7179
49.1000 2.4506
49.1100 0.5921
49.1200 0.6314
49.1300 0.3632
49.1400 0.0000
49.1500 0.0000
49.1600 0.9994
49.1700 0.9948
49.1800 0.0000
49.1900 0.9567
49.2000 0.0000
49.2100 0.0000
49.2200 0.0000
49.2300 0.0000
49.2400 0.9992
49.2500 0.0000
49.2600 1.9966
49.2700 0.0437
49.2800 0.9857
49.2900 0.0000
49.3000 0.0000
49.3100 0.9912
49.3200 1.0301
49.3300 1.2266
49.3400 0.7610
49.3500 0.0000
49.3600 0.0000
49.3700 0.0000
49.3800 0.9819
49.3900 0.9927
49.4000 0.0000
49.4100 0.3798
49.4200 0.6404
49.4300 0.0000
49.4400 0.0000
49.4500 0.7066
49.4600 0.2357
49.4700 0.0000
49.4800 0.9682
49.4900 0.0000
49.5000 0.0000
49.5100 0.0000
49.5200 0.9398
49.5300 0.9830
49.5400 0.6291
49.5500 0.4205
49.5600 1.0354
49.5700 0.0000
49.5800 0.0000
49.5900 0.0000
49.6000 0.0000
49.6100 0.0000
49.6200 0.0000
49.6300 0.0000
49.6400 0.0000
49.6500 0.9789
49.6600 0.0000
49.6700 0.0000
49.6800 0.0000
49.6900 0.0000
49.7000 0.0000
49.7100 0.2036
49.7200 0.7939
49.7300 0.0000
49.7400 0.0000
49.7500 0.5684
49.7600 1.3870
49.7700 0.0000
49.7800 0.0000
49.7900 0.9727
49.8000 1.0138
49.8100 0.0000
49.8200 0.2263
49.8300 1.6909
49.8400 0.0000
49.8500 0.9670
49.8600 1.9835
49.8700 0.0000
49.8800 1.0333
49.8900 0.9600
49.9000 1.9211
49.9100 0.0967
49.9200 0.9317
49.9300 0.0000
49.9400 0.9948
49.9500 0.9846
49.9600 2.6090
49.9700 0.4341
49.9800 0.0000
49.9900 0.0000
50.0000 0.9120
50.0100 1.0303
50.0200 0.9759
50.0300 0.0000
50.0400 0.0000
50.0500 0.0000
50.0600 2.0515
50.0700 0.0000
50.0800 0.0000
50.0900 0.0000
50.1000 0.9734
50.1100 0.1259
50.1200 0.0000
50.1300 0.0000
50.1400 0.0000
50.1500 0.0000
50.1600 0.0000
50.1700 0.5656
50.1800 0.4698
50.1900 0.0000
50.2000 0.0000
50.2100 0.0000
50.2200 0.0000
50.2300 0.0000
50.2400 0.9952
50.2500 0.0000
50.2600 0.0000
50.2700 0.0000
50.2800 0.0000
50.2900 1.6809
50.3000 0.3243
50.3100 0.0000
50.3200 0.9453
50.3300 0.0372
50.3400 0.0000
50.3500 0.0000
50.3600 0.3369
50.3700 0.6547
50.3800 0.0000
50.3900 1.1763
50.4000 0.0000
50.4100 1.0390
50.4200 0.8605
50.4300 0.0902
50.4400 1.9749
50.4500 0.0000
50.4600 0.0000
50.4700 0.0000
50.4800 0.0000
50.4900 0.0000
50.5000 0.0000
50.5100 0.0000
50.5200 2.0018
50.5300 0.9796
50.5400 0.0000
50.5500 0.0000
50.5600 0.0000
50.5700 0.0000
50.5800 0.9870
50.5900 1.0225
50.6000 0.0000
50.6100 0.0000
50.6200 0.0000
50.6300 0.9757
50.6400 1.0278
50.6500 0.0000
50.6600 0.1635
50.6700 0.7893
50.6800 1.3441
50.6900 0.6315
50.7000 0.5917
50.7100 0.4857
50.7200 0.9378
50.7300 0.0000
50.7400 1.0036
50.7500 0.0230
50.7600 1.1778
50.7700 0.8527
50.7800 2.0207
50.7900 0.4190
50.8000 0.6320
50.8100 0.0000
50.8200 3.4211
50.8300 0.6501
50.8400 3.9282
50.8500 2.0687
50.8600 2.1272
50.8700 0.3016
50.8800 1.9062
50.8900 0.7501
50.9000 0.9578
50.9100 0.0000
50.9200 0.6847
50.9300 0.4094
50.9400 0.0000
50.9500 1.8638
50.9600 1.0969
50.9700 1.0419
50.9800 1.0635
50.9900 0.2884
51.0000 1.1279
51.0100 0.6659
51.0200 1.6904
51.0300 1.0824
51.0400 0.3323
51.0500 0.0000
51.0600 0.0000
51.0700 0.0000
51.0800 1.1269
51.0900 0.8692
51.1000 1.3034
51.1100 1.6593
51.1200 0.0000
51.1300 0.9488
51.1400 1.4626
51.1500 1.6279
51.1600 0.9566
51.1700 0.0000
51.1800 0.0000
51.1900 0.0000
51.2000 0.0000
51.2100 0.0000
51.2200 0.9457
51.2300 0.0000
51.2400 0.0000
51.2500 0.0000
51.2600 2.7702
51.2700 0.1626
51.2800 0.0000
51.2900 0.0000
51.3000 0.0000
51.3100 0.0000
51.3200 0.0000
51.3300 1.0038
51.3400 2.9921
51.3500 0.9683
51.3600 1.0034
51.3700 0.0000
51.3800 0.0000
51.3900 0.0000
51.4000 0.0000
51.4100 0.0000
51.4200 0.0000
51.4300 0.0000
51.4400 0.0000
51.4500 0.0000
51.4600 0.0000
51.4700 0.0000
51.4800 0.9109
51.4900 0.0063
51.5000 2.0564
51.5100 1.9511
51.5200 2.2227
51.5300 0.6929
51.5400 0.0000
51.5500 1.8993
51.5600 1.6371
51.5700 2.9201
51.5800 1.5264
51.5900 0.0000
51.6000 0.0882
51.6100 1.8881
51.6200 0.0000
51.6300 0.9393
51.6400 0.0000
51.6500 0.0000
51.6600 0.0000
51.6700 0.0000
51.6800 0.0000
51.6900 0.0000
51.7000 0.0000
51.7100 0.0000
51.7200 0.3484
51.7300 1.6156
51.7400 0.0000
51.7500 1.0226
51.7600 0.0000
51.7700 0.0000
51.7800 2.7220
51.7900 1.0312
51.8000 0.1514
51.8100 0.0000
51.8200 0.2474
51.8300 1.7917
51.8400 0.0000
51.8500 0.0000
51.8600 0.0000
51.8700 0.9783
51.8800 0.0000
51.8900 2.0292
51.9000 0.0000
51.9100 0.0000
51.9200 0.0000
51.9300 0.3229
51.9400 3.2022
51.9500 2.6136
51.9600 0.0000
51.9700 0.5356
51.9800 2.1316
51.9900 1.0717
52.0000 0.2702
52.0100 0.0000
52.0200 0.0000
52.0300 0.0000
52.0400 0.0000
52.0500 0.0000
52.0600 0.0000
52.0700 0.4771
52.0800 0.5145
52.0900 0.0000
52.1000 0.0000
52.1100 2.8417
52.1200 1.0967
52.1300 0.0000
52.1400 0.0000
52.1500 0.2358
52.1600 0.7621
52.1700 0.0000
52.1800 0.0000
52.1900 1.7216
52.2000 0.3989
52.2100 0.0000
52.2200 0.0000
52.2300 0.9749
52.2400 0.0084
52.2500 0.0000
52.2600 0.0000
52.2700 0.0000
52.2800 0.9746
52.2900 0.0000
52.3000 0.0000
52.3100 0.0000
52.3200 0.0000
52.3300 0.0000
52.3400 0.0000
52.3500 1.9886
52.3600 0.0000
52.3700 0.3215
52.3800 0.7056
52.3900 1.0606
52.4000 0.0000
52.4100 0.0000
52.4200 0.7893
52.4300 0.2162
52.4400 0.0000
52.4500 0.9652
52.4600 0.0000
52.4700 0.2639
52.4800 1.7834
52.4900 0.0000
52.5000 0.9679
52.5100 0.0000
52.5200 1.0082
52.5300 0.0000
52.5400 1.8952
52.5500 0.0815
52.5600 1.1125
52.5700 0.9204
52.5800 0.2973
52.5900 1.1042
52.6000 0.6180
52.6100 0.9773
52.6200 0.6343
52.6300 0.3084
52.6400 0.0000
52.6500 0.0000
52.6600 1.0670
52.6700 1.9911
52.6800 0.0000
52.6900 0.0000
52.7000 0.0000
52.7100 0.0000
52.7200 0.0000
52.7300 0.9927
52.7400 0.0000
52.7500 0.8796
52.7600 0.0977
52.7700 0.9466
52.7800 0.0000
52.7900 0.0000
52.8000 0.3563
52.8100 0.6016
52.8200 0.5460
52.8300 0.4276
52.8400 0.0000
52.8500 0.9913
52.8600 0.9486
52.8700 0.0976
52.8800 2.0808
52.8900 1.2258
52.9000 0.8112
52.9100 0.3906
52.9200 0.5614
52.9300 0.0000
52.9400 0.9702
52.9500 0.7676
52.9600 0.2066
52.9700 0.0000
52.9800 1.0056
52.9900 0.0000
53.0000 0.0000
53.0100 1.9550
53.0200 0.0000
53.0300 1.0738
53.0400 0.6083
53.0500 1.3446
53.0600 0.0000
53.0700 0.9651
53.0800 1.0011
53.0900 1.0093
53.1000 3.9162
53.1100 0.0000
53.1200 0.4049
53.1300 1.6533
53.1400 0.0000
53.1500 0.9748
53.1600 0.0000
53.1700 0.9979
53.1800 1.0029
53.1900 0.0544
53.2000 1.1150
53.2100 0.8606
53.2200 0.0000
53.2300 0.0000
53.2400 1.0186
53.2500 1.8543
53.2600 2.6313
53.2700 0.2769
53.2800 0.8944
53.2900 0.0962
53.3000 1.1657
53.3100 0.9165
53.3200 1.0195
53.3300 0.0000
53.3400 0.0000
53.3500 0.5500
53.3600 1.4897
53.3700 0.7474
53.3800 0.2459
53.3900 3.8047
53.4000 1.1568
53.4100 0.0000
53.4200 0.0000
53.4300 0.6312
53.4400 1.3486
53.4500 0.0000
53.4600 0.0000
53.4700 0.0000
53.4800 0.9777
53.4900 0.9604
53.5000 1.1194
53.5100 0.0816
53.5200 1.0218
53.5300 0.0000
53.5400 0.0000
53.5500 1.0317
53.5600 0.0000
53.5700 0.0000
53.5800 0.0000
53.5900 0.0000
53.6000 2.0348
53.6100 0.0977
53.6200 1.9807
53.6300 0.0000
53.6400 0.0000
53.6500 0.3825
53.6600 0.5847
53.6700 0.5798
53.6800 0.4125
53.6900 0.0000
53.7000 1.8481
53.7100 3.1501
53.7200 0.0000
53.7300 1.0074
53.7400 0.0000
53.7500 0.0000
53.7600 1.0103
53.7700 0.9525
53.7800 0.0000
53.7900 0.0000
53.8000 0.0000
53.8100 0.9128
53.8200 1.0890
53.8300 0.0000
53.8400 0.0000
53.8500 0.9920
53.8600 0.0000
53.8700 0.4716
53.8800 0.5272
53.8900 0.0000
53.9000 1.0777
53.9100 0.0000
53.9200 2.0067
53.9300 1.0027
53.9400 0.0000
53.9500 1.0176
53.9600 0.0000
53.9700 0.4162
53.9800 0.5841
53.9900 0.0000
54.0000 2.9649
54.0100 0.0000
54.0200 0.9593
54.0300 0.9378
54.0400 2.1775
54.0500 1.1137
54.0600 0.5477
54.0700 0.0000
54.0800 0.0000
54.0900 0.9549
54.1000 0.0000
54.1100 0.0000
54.1200 0.0000
54.1300 1.0170
54.1400 0.0000
54.1500 0.0000
54.1600 0.0000
54.1700 0.2891
54.1800 1.6633
54.1900 0.0000
54.2000 0.9537
54.2100 0.0000
54.2200 0.7401
54.2300 0.2137
54.2400 0.0000
54.2500 0.9626
54.2600 2.0505
54.2700 0.0838
54.2800 1.2154
54.2900 0.2952
54.3000 1.4037
54.3100 0.9732
54.3200 1.9132
54.3300 0.0000
54.3400 0.0000
54.3500 1.0205
54.3600 1.0022
54.3700 0.0000
54.3800 0.0000
54.3900 0.7461
54.4000 1.2139
54.4100 0.9865
54.4200 0.0000
54.4300 0.0000
54.4400 0.0000
54.4500 0.0000
54.4600 0.0409
54.4700 1.9273
54.4800 0.0000
54.4900 0.0000
54.5000 0.0000
54.5100 0.0000
54.5200 0.0000
54.5300 0.0000
54.5400 0.0000
54.5500 0.0000
54.5600 0.0000
54.5700 0.0000
54.5800 0.0000
54.5900 0.0000
54.6000 0.3428
54.6100 0.6017
54.6200 0.0000
54.6300 0.0000
54.6400 0.0000
54.6500 0.0000
54.6600 0.9228
54.6700 0.0702
54.6800 0.0000
54.6900 0.0000
54.7000 0.0000
54.7100 0.0000
54.7200 0.0000
54.7300 0.0000
54.7400 0.0000
54.7500 0.0000
54.7600 0.9715
54.7700 0.0000
54.7800 0.0000
54.7900 0.0000
54.8000 0.0000
54.8100 0.0000
54.8200 0.0000
54.8300 0.0000
54.8400 0.0000
54.8500 0.0000
54.8600 0.8451
54.8700 1.2015
54.8800 0.0000
54.8900 1.9915
54.9000 0.0000
54.9100 0.0000
54.9200 0.0000
54.9300 0.0000
54.9400 1.5517
54.9500 0.6447
54.9600 0.1060
54.9700 2.3260
54.9800 0.0919
54.9900 0.7469
55.0000 2.0902
55.0100 0.8578
55.0200 1.0653
55.0300 0.0000
55.0400 0.0000
55.0500 0.0000
55.0600 0.0000
55.0700 0.0000
55.0800 0.0000
55.0900 0.0000
55.1000 0.0000
55.1100 1.0448
55.1200 0.0000
55.1300 0.0000
55.1400 0.0000
55.1500 0.0000
55.1600 0.0000
55.1700 0.0000
55.1800 0.0000
55.1900 0.9335
55.2000 1.1033
55.2100 1.9387
55.2200 0.0000
55.2300 0.0000
55.2400 0.0000
55.2500 0.0000
55.2600 1.9434
55.2700 0.6955
55.2800 1.3234
55.2900 0.8798
55.3000 0.1243
55.3100 0.0000
55.3200 1.0556
55.3300 0.0000
55.3400 0.0000
55.3500 1.4754
55.3600 0.5508
55.3700 0.0000
55.3800 0.7730
55.3900 1.3109
55.4000 0.0000
55.4100 1.0275
55.4200 1.0369
55.4300 0.0000
55.4400 0.2925
55.4500 0.7088
55.4600 0.0000
55.4700 0.5550
55.4800 0.4098
55.4900 0.0000
55.5000 0.0000
55.5100 1.0488
55.5200 1.0220
55.5300 0.9455
55.5400 0.0000
55.5500 0.9880
55.5600 0.0000
55.5700 1.0258
55.5800 0.9908
55.5900 1.3681
55.6000 2.5984
55.6100 0.0000
55.6200 0.0000
55.6300 1.0763
55.6400 1.0390
55.6500 0.8261
55.6600 0.0000
55.6700 0.0000
55.6800 2.4631
55.6900 0.4322
55.7000 0.0000
55.7100 0.9397
55.7200 2.2100
55.7300 0.0597
55.7400 3.1398
55.7500 0.8951
55.7600 0.0000
55.7700 0.3986
55.7800 0.5806
55.7900 1.5762
55.8000 0.3995
55.8100 0.0000
55.8200 0.0000
55.8300 0.0000
55.8400 0.9990
55.8500 1.0039
55.8600 0.2607
55.8700 1.7271
55.8800 1.0008
55.8900 0.0000
55.9000 0.0000
55.9100 0.0000
55.9200 0.8176
55.9300 1.1504
55.9400 0.0000
55.9500 0.2069
55.9600 3.1605
55.9700 0.0000
55.9800 0.0000
55.9900 0.0000
56.0000 0.9783
56.0100 1.0160
56.0200 1.9643
56.0300 0.0000
56.0400 0.0000
56.0500 0.0000
56.0600 1.0940
56.0700 0.0000
56.0800 0.9961
56.0900 0.9709
56.1000 0.0000
56.1100 1.8633
56.1200 0.0000
56.1300 0.7753
56.1400 0.1875
56.1500 0.0000
56.1600 0.0000
56.1700 0.0000
56.1800 0.0000
56.1900 0.0000
56.2000 0.0000
56.2100 0.5373
56.2200 0.4214
56.2300 0.7477
56.2400 1.2705
56.2500 0.0000
56.2600 0.0000
56.2700 1.2576
56.2800 1.8799
56.2900 1.6883
56.3000 0.9911
56.3100 1.0007
56.3200 0.0000
56.3300 0.0000
56.3400 0.0000
56.3500 0.0000
56.3600 0.9998
56.3700 1.0447
56.3800 0.9520
56.3900 0.0000
56.4000 0.0000
56.4100 0.0000
56.4200 0.0000
56.4300 0.0000
56.4400 1.1086
56.4500 2.8844
56.4600 0.1765
56.4700 0.0000
56.4800 1.0682
56.4900 0.4206
56.5000 1.6463
56.5100 0.0000
56.5200 0.0000
56.5300 1.5859
56.5400 0.4284
56.5500 0.9928
56.5600 1.0049
56.5700 0.0000
56.5800 0.0000
56.5900 0.9750
56.6000 0.0000
56.6100 0.3203
56.6200 1.7051
56.6300 0.0000
56.6400 0.0000
56.6500 0.0000
56.6600 0.0000
56.6700 0.0000
56.6800 0.0000
56.6900 2.9049
56.7000 0.1778
56.7100 1.8756
56.7200 2.0415
56.7300 0.0000
56.7400 0.0000
56.7500 1.1830
56.7600 0.8225
56.7700 1.8519
56.7800 0.2915
56.7900 1.9547
56.8000 0.0000
56.8100 1.9736
56.8200 0.0000
56.8300 1.0556
56.8400 0.5066
56.8500 1.4269
56.8600 0.6918
56.8700 2.2190
56.8800 0.0000
56.8900 0.0000
56.9000 0.9264
56.9100 0.0000
56.9200 0.0000
56.9300 0.0000
56.9400 0.0000
56.9500 0.0000
56.9600 0.0000
56.9700 1.0215
56.9800 1.9544
56.9900 0.9205
57.0000 2.0689
57.0100 0.0000
57.0200 0.0000
57.0300 0.0000
57.0400 0.0000
57.0500 0.0000
57.0600 0.0000
57.0700 0.7518
57.0800 0.3565
57.0900 0.0000
57.1000 0.0000
57.1100 0.9684
57.1200 0.0000
57.1300 0.0000
57.1400 0.0000
57.1500 1.9613
57.1600 1.0250
57.1700 0.6248
57.1800 0.3792
57.1900 0.9795
57.2000 0.0000
57.2100 0.0000
57.2200 0.9854
57.2300 0.3902
57.2400 1.6780
57.2500 0.0000
57.2600 0.4566
57.2700 0.5110
57.2800 0.0000
57.2900 0.0000
57.3000 1.8250
57.3100 1.0952
57.3200 0.0563
57.3300 0.0000
57.3400 1.0189
57.3500 0.0000
57.3600 0.0000
57.3700 0.0000
57.3800 0.6004
57.3900 0.3927
57.4000 0.0000
57.4100 0.0000
57.4200 0.0000
57.4300 0.0729
57.4400 0.8789
57.4500 0.0000
57.4600 0.9916
57.4700 0.0000
57.4800 0.0000
57.4900 0.0000
57.5000 0.0000
57.5100 0.0000
57.5200 0.0000
57.5300 0.0000
57.5400 1.1123
57.5500 0.9240
57.5600 0.0000
57.5700 0.0000
57.5800 0.4887
57.5900 1.0843
57.6000 1.1252
57.6100 0.3352
57.6200 1.7079
57.6300 1.1988
57.6400 1.0396
57.6500 0.1498
57.6600 1.3217
57.6700 1.8358
57.6800 0.6457
57.6900 0.0000
57.7000 0.0000
57.7100 1.6900
57.7200 0.2729
57.7300 0.9446
57.7400 0.0000
57.7500 0.0000
57.7600 1.3667
57.7700 1.6343
57.7800 0.0000
57.7900 0.0000
57.8000 0.0000
57.8100 0.0000
57.8200 0.0000
57.8300 0.8197
57.8400 0.1420
57.8500 0.0000
57.8600 1.0137
57.8700 0.0000
57.8800 0.0000
57.8900 0.0000
57.9000 0.0000
57.9100 0.0000
57.9200 0.0000
57.9300 0.0000
57.9400 0.0000
57.9500 1.0381
57.9600 0.0157
57.9700 0.0000
57.9800 0.0000
57.9900 0.0000
58.0000 0.0000
58.0100 0.9978
58.0200 1.0442
58.0300 0.0000
58.0400 0.0000
58.0500 0.0000
58.0600 0.0000
58.0700 0.0000
58.0800 0.0000
58.0900 0.2978
58.1000 0.6735
58.1100 0.5504
58.1200 1.1623
58.1300 0.4185
58.1400 0.0000
58.1500 0.0000
58.1600 1.9204
58.1700 0.0307
58.1800 0.0000
58.1900 0.0000
58.2000 0.0000
58.2100 1.0281
58.2200 0.0000
58.2300 0.0000
58.2400 0.0000
58.2500 0.0000
58.2600 0.0000
58.2700 0.0000
58.2800 0.0000
58.2900 0.0000
58.3000 0.0000
58.3100 0.0000
58.3200 0.0000
58.3300 0.0000
58.3400 0.0000
58.3500 0.0000
58.3600 0.0000
58.3700 1.9111
58.3800 0.0441
58.3900 0.9586
58.4000 0.0000
58.4100 0.0000
58.4200 0.0000
58.4300 0.0000
58.4400 0.0000
58.4500 0.0000
58.4600 0.0000
58.4700 0.0000
58.4800 0.0000
58.4900 0.0000
58.5000 1.0069
58.5100 0.0000
58.5200 0.3551
58.5300 0.6164
58.5400 1.0087
58.5500 1.2968
58.5600 1.6532
58.5700 0.0000
58.5800 1.8674
58.5900 0.0913
58.6000 0.9635
58.6100 0.2027
58.6200 1.7383
58.6300 0.0000
58.6400 0.0000
58.6500 0.0000
58.6600 1.0229
58.6700 0.0000
58.6800 0.0000
58.6900 0.0000
58.7000 0.0000
58.7100 0.0000
58.7200 0.0000
58.7300 0.9847
58.7400 0.4541
58.7500 1.0714
58.7600 0.4306
58.7700 0.0000
58.7800 0.0000
58.7900 0.0000
58.8000 0.0086
58.8100 0.9990
58.8200 0.0000
58.8300 0.0000
58.8400 0.3803
58.8500 2.4756
58.8600 1.0131
58.8700 1.3062
58.8800 0.6453
58.8900 0.0000
58.9000 1.9327
58.9100 0.0460
58.9200 0.9578
58.9300 0.2329
58.9400 1.7521
58.9500 0.0000
58.9600 0.0000
58.9700 1.2284
58.9800 0.7746
58.9900 0.0000
59.0000 0.0000
59.0100 0.9494
59.0200 0.0000
59.0300 0.0000
59.0400 0.0000
59.0500 0.0000
59.0600 0.9670
59.0700 0.9713
59.0800 0.9970
59.0900 0.0000
59.1000 0.0000
59.1100 0.0000
59.1200 0.0000
59.1300 0.0000
59.1400 0.2068
59.1500 1.7153
59.1600 0.4153
59.1700 0.6056
59.1800 0.0000
59.1900 0.6826
59.2000 1.0824
59.2100 0.2133
59.2200 1.9255
59.2300 1.0372
59.2400 0.0000
59.2500 0.2436
59.2600 1.7835
59.2700 0.0000
59.2800 0.9583
59.2900 0.0000
59.3000 0.9882
59.3100 0.0000
59.3200 0.0000
59.3300 0.0000
59.3400 0.0000
59.3500 0.0000
59.3600 0.0000
59.3700 0.0000
59.3800 0.0000
59.3900 0.0000
59.4000 0.9594
59.4100 0.9713
59.4200 0.0000
59.4300 0.9757
59.4400 0.0000
59.4500 0.1430
59.4600 0.8483
59.4700 0.6816
59.4800 0.0000
59.4900 0.3408
59.5000 1.0925
59.5100 0.0000
59.5200 0.0000
59.5300 0.0000
59.5400 0.0000
59.5500 0.0000
59.5600 0.0000
59.5700 0.0000
59.5800 0.9954
59.5900 0.0000
59.6000 0.0000
59.6100 2.1570
59.6200 0.9632
59.6300 0.0000
59.6400 0.0000
59.6500 1.9455
59.6600 0.0000
59.6700 0.4645
59.6800 1.6382
59.6900 0.0000
59.7000 0.0000
59.7100 0.9697
59.7200 0.7047
59.7300 1.3084
59.7400 0.0000
59.7500 0.0000
59.7600 0.0000
59.7700 0.1709
59.7800 0.8661
59.7900 0.0000
59.8000 0.4556
59.8100 0.5614
59.8200 0.9705
59.8300 0.0000
59.8400 0.0000
59.8500 0.0000
59.8600 0.0138
59.8700 0.9486
59.8800 0.0000
59.8900 0.0000
59.9000 0.3700
59.9100 0.5740
59.9200 0.0000
59.9300 0.0000
59.9400 0.0000
59.9500 0.0000
59.9600 0.0000
59.9700 0.0526
59.9800 0.9452
59.9900 0.0000
60.0000 0.0000
60.0100 0.0000
60.0200 0.0000
60.0300 1.0004
60.0400 0.9595
60.0500 0.0000
60.0600 0.0000
60.0700 0.0000
60.0800 0.0000
60.0900 0.2129
60.1000 0.9349
60.1100 1.2974
60.1200 0.6429
60.1300 0.0000
60.1400 0.0000
60.1500 0.0000
60.1600 0.0000
60.1700 0.0000
60.1800 0.0000
60.1900 0.0000
60.2000 0.0000
60.2100 0.6247
60.2200 1.7235
60.2300 2.5109
60.2400 0.0000
60.2500 0.0000
60.2600 0.7940
60.2700 0.2109
60.2800 0.0000
60.2900 2.0659
60.3000 1.1811
60.3100 0.8044
60.3200 0.3508
60.3300 0.6331
60.3400 1.9771
60.3500 0.6176
60.3600 3.1311
60.3700 0.2556
60.3800 0.8956
60.3900 0.0748
60.4000 0.3228
60.4100 2.7613
60.4200 1.7097
60.4300 0.4106
60.4400 2.0884
60.4500 0.5057
60.4600 1.9486
60.4700 0.0000
60.4800 0.9783
60.4900 1.8502
60.5000 1.0740
60.5100 0.9366
60.5200 1.1493
60.5300 1.6693
60.5400 0.0000
60.5500 1.4666
60.5600 1.0458
60.5700 1.0379
60.5800 0.2666
60.5900 0.0000
60.6000 0.0000
60.6100 0.0000
60.6200 0.9881
60.6300 0.5618
60.6400 1.8090
60.6500 0.6342
60.6600 0.0000
60.6700 0.0000
60.6800 1.8060
60.6900 2.3153
60.7000 1.0256
60.7100 0.0000
60.7200 0.0000
60.7300 2.0007
60.7400 0.0000
60.7500 0.4467
60.7600 1.1267
60.7700 0.4790
60.7800 0.9715
60.7900 0.0000
60.8000 0.0000
60.8100 0.0000
60.8200 0.9165
60.8300 0.0000
60.8400 1.0241
60.8500 0.0000
60.8600 0.9873
60.8700 0.0000
60.8800 0.9604
60.8900 0.6959
60.9000 0.2483
60.9100 0.0000
60.9200 0.0000
60.9300 0.2240
60.9400 1.7306
60.9500 0.0000
60.9600 1.0730
60.9700 0.0000
60.9800 0.0000
60.9900 0.6694
61.0000 1.8786
61.0100 2.4114
61.0200 1.0059
61.0300 0.9858
61.0400 0.0000
61.0500 0.2643
61.0600 0.8044
61.0700 0.0000
61.0800 0.0000
61.0900 0.0000
61.1000 0.0000
61.1100 0.0000
61.1200 0.0000
61.1300 0.9744
61.1400 0.0000
61.1500 0.0000
61.1600 0.0000
61.1700 0.0000
61.1800 0.0000
61.1900 0.9417
61.2000 0.0000
61.2100 0.9915
61.2200 1.6755
61.2300 0.2910
61.2400 1.0236
61.2500 0.0000
61.2600 0.0000
61.2700 0.0000
61.2800 0.0000
61.2900 0.0000
61.3000 0.0000
61.3100 0.0000
61.3200 0.0000
61.3300 0.0000
61.3400 0.0000
61.3500 1.0945
61.3600 1.9706
61.3700 0.0000
61.3800 0.0000
61.3900 0.0000
61.4000 0.0000
61.4100 0.0000
61.4200 0.0000
61.4300 0.0000
61.4400 0.0000
61.4500 0.0000
61.4600 1.0256
61.4700 0.0000
61.4800 0.0000
61.4900 0.9789
61.5000 0.0000
61.5100 0.5829
61.5200 0.4060
61.5300 0.0000
61.5400 0.0000
61.5500 0.0000
61.5600 0.9768
61.5700 0.0000
61.5800 1.0311
61.5900 0.0000
61.6000 2.0203
61.6100 0.0000
61.6200 0.0000
61.6300 0.0000
61.6400 0.0000
61.6500 0.0000
61.6600 1.0274
61.6700 0.9341
61.6800 0.0000
61.6900 0.0000
61.7000 0.0000
61.7100 0.0000
61.7200 1.5402
61.7300 3.0408
61.7400 1.3364
61.7500 0.0000
61.7600 0.9949
61.7700 0.1314
61.7800 3.8638
61.7900 0.2488
61.8000 0.8213
61.8100 0.0000
61.8200 0.0000
61.8300 0.0000
61.8400 1.0087
61.8500 0.7720
61.8600 0.1944
61.8700 0.0000
61.8800 0.0000
61.8900 2.1911
61.9000 1.8194
61.9100 0.0000
61.9200 0.0000
61.9300 0.9933
61.9400 0.0000
61.9500 0.0000
61.9600 0.9762
61.9700 1.0627
61.9800 0.0268
61.9900 1.0047
62.0000 0.0000
62.0100 0.3172
62.0200 1.0885
62.0300 1.0626
62.0400 0.5055
62.0500 0.0000
62.0600 0.0000
62.0700 0.0000
62.0800 0.0000
62.0900 0.0000
62.1000 0.0000
62.1100 0.0000
62.1200 0.9342
62.1300 0.0000
62.1400 0.0000
62.1500 0.9912
62.1600 0.0000
62.1700 0.0000
62.1800 0.0000
62.1900 0.0000
62.2000 0.0000
62.2100 0.9582
62.2200 0.0000
62.2300 0.7528
62.2400 1.6856
62.2500 0.5276
62.2600 0.0000
62.2700 0.0000
62.2800 0.0000
62.2900 1.9965
62.3000 0.1002
62.3100 0.0000
62.3200 0.0000
62.3300 0.0000
62.3400 0.0000
62.3500 0.9384
62.3600 0.6049
62.3700 0.3819
62.3800 0.0000
62.3900 0.0000
62.4000 0.0000
62.4100 1.0663
62.4200 0.8943
62.4300 0.2693
62.4400 1.0838
62.4500 0.6341
62.4600 0.9780
62.4700 0.0000
62.4800 0.0000
62.4900 1.8404
62.5000 1.1421
62.5100 0.0285
62.5200 0.9588
62.5300 0.0000
62.5400 0.0000
62.5500 0.9628
62.5600 0.0000
62.5700 0.0000
62.5800 0.9987
62.5900 0.0000
62.6000 0.9669
62.6100 0.0000
62.6200 0.0000
62.6300 1.1897
62.6400 1.9738
62.6500 0.3460
62.6600 1.7695
62.6700 0.0000
62.6800 0.6631
62.6900 0.3835
62.7000 1.7898
62.7100 0.1808
62.7200 0.0110
62.7300 0.9783
62.7400 0.0000
62.7500 0.0000
62.7600 0.0000
62.7700 0.0000
62.7800 0.0000
62.7900 0.0000
62.8000 0.0000
62.8100 0.0000
62.8200 0.0000
62.8300 0.0000
62.8400 0.0000
62.8500 1.2607
62.8600 0.7334
62.8700 0.4095
62.8800 0.5493
62.8900 0.9192
62.9000 2.4270
62.9100 0.5789
62.9200 0.0000
62.9300 0.9796
62.9400 0.0065
62.9500 0.0000
62.9600 1.0673
62.9700 1.0227
62.9800 0.0000
62.9900 0.0000
63.0000 0.9985
63.0100 0.0000
63.0200 1.0301
63.0300 0.8962
63.0400 0.0599
63.0500 0.0000
63.0600 0.0000
63.0700 0.0000
63.0800 0.0000
63.0900 0.0000
63.1000 0.0000
63.1100 0.0000
63.1200 0.8142
63.1300 1.0906
63.1400 0.1172
63.1500 1.0599
63.1600 0.0000
63.1700 0.0000
63.1800 0.0000
63.1900 0.0000
63.2000 0.1682
63.2100 0.0000
63.2200 1.1534
63.2300 1.0231
63.2400 0.0000
63.2500 1.0472
63.2600 0.9680
63.2700 0.1988
63.2800 0.7811
63.2900 0.4136
63.3000 0.6424
63.3100 0.0000
63.3200 1.6065
63.3300 0.3163
63.3400 0.8243
63.3500 0.1302
63.3600 1.0738
63.3700 0.0000
63.3800 0.0000
63.3900 0.0000
63.4000 0.0000
63.4100 1.5523
63.4200 2.4663
63.4300 1.9980
63.4400 0.0000
63.4500 0.0000
63.4600 0.0000
63.4700 1.0211
63.4800 0.0000
63.4900 0.2797
63.5000 1.6958
63.5100 0.4737
63.5200 0.5378
63.5300 2.0565
63.5400 0.7073
63.5500 1.0625
63.5600 0.1510
63.5700 0.0000
63.5800 0.0000
63.5900 0.9700
63.6000 0.0000
63.6100 0.0000
63.6200 0.5049
63.6300 1.4746
63.6400 0.0000
63.6500 0.0000
63.6600 0.9567
63.6700 0.9726
63.6800 0.9248
63.6900 0.1641
63.7000 0.8161
63.7100 1.0108
63.7200 0.0000
63.7300 0.0000
63.7400 0.0000
63.7500 0.0000
63.7600 0.8453
63.7700 1.2074
63.7800 0.0000
63.7900 0.0000
63.8000 1.0518
63.8100 1.0124
63.8200 0.3936
63.8300 2.5575
63.8400 0.0000
63.8500 0.0000
63.8600 1.0080
63.8700 0.0000
63.8800 0.0000
63.8900 2.1303
63.9000 1.8338
63.9100 0.2514
63.9200 0.7784
63.9300 0.4114
63.9400 0.5390
63.9500 0.0000
63.9600 0.0000
63.9700 0.7952
63.9800 1.2612
63.9900 0.9679
64.0000 0.0007
64.0100 0.0000
64.0200 0.0000
64.0300 1.3264
64.0400 0.6241
64.0500 0.0000
64.0600 0.0000
64.0700 0.7776
64.0800 0.2532
64.0900 0.0000
64.1000 1.9725
64.1100 1.0235
64.1200 0.2315
64.1300 0.7912
64.1400 1.0226
64.1500 0.5302
64.1600 0.5103
64.1700 0.0000
64.1800 0.0000
64.1900 0.0000
64.2000 0.0000
64.2100 0.1499
64.2200 2.8472
64.2300 1.0292
64.2400 0.0000
64.2500 0.0000
64.2600 0.0000
64.2700 0.0000
64.2800 0.0000
64.2900 0.0000
64.3000 0.0000
64.3100 1.1320
64.3200 0.0000
64.3300 0.0000
64.3400 0.0000
64.3500 0.3971
64.3600 2.0322
64.3700 1.4526
64.3800 0.0000
64.3900 0.7728
64.4000 1.2687
64.4100 0.9123
64.4200 0.0964
64.4300 1.0059
64.4400 0.0000
64.4500 0.0000
64.4600 0.0000
64.4700 0.9779
64.4800 0.9596
64.4900 0.7182
64.5000 1.3175
64.5100 1.9667
64.5200 0.0000
64.5300 0.9429
64.5400 0.1908
64.5500 2.8644
64.5600 0.3914
64.5700 0.6394
64.5800 0.9879
64.5900 1.6021
64.6000 0.3243
64.6100 2.0451
64.6200 1.9024
64.6300 3.1865
64.6400 1.0869
64.6500 0.4518
64.6600 1.5187
64.6700 2.0637
64.6800 0.5085
64.6900 0.4838
64.7000 2.6920
64.7100 1.0762
64.7200 2.0945
64.7300 3.0700
64.7400 0.0310
64.7500 1.0138
64.7600 0.0000
64.7700 0.3773
64.7800 1.7089
64.7900 1.0828
64.8000 1.6137
64.8100 0.4018
64.8200 0.0000
64.8300 1.9545
64.8400 0.0737
64.8500 0.6404
64.8600 0.2184
64.8700 1.1342
64.8800 0.3997
64.8900 2.5081
64.9000 2.5888
64.9100 1.4246
64.9200 0.0000
64.9300 1.1791
64.9400 2.9810
64.9500 2.1186
64.9600 2.0601
64.9700 0.5023
64.9800 2.8285
64.9900 1.5272
65.0000 1.1225
65.0100 1.2305
65.0200 1.6958
65.0300 0.8464
65.0400 2.1074
65.0500 2.9786
65.0600 0.1922
65.0700 3.8361
65.0800 0.5543
65.0900 2.7777
65.1000 0.6385
65.1100 1.5039
65.1200 0.3900
65.1300 2.0136
65.1400 0.0000
65.1500 1.0322
65.1600 0.0984
65.1700 0.9462
65.1800 0.0000
65.1900 0.0000
65.2000 0.0000
65.2100 0.0000
65.2200 0.0000
65.2300 0.0000
65.2400 0.0000
65.2500 0.0000
65.2600 0.0000
65.2700 0.0000
65.2800 0.0000
65.2900 0.0000
65.3000 0.3578
65.3100 0.6227
65.3200 0.0000
65.3300 0.0000
65.3400 1.0035
65.3500 0.0000
65.3600 0.0000
65.3700 0.0000
65.3800 0.0000
65.3900 0.2112
65.4000 0.7736
65.4100 1.0433
65.4200 0.0000
65.4300 0.0000
65.4400 0.9970
65.4500 0.0000
65.4600 2.0371
65.4700 0.0000
65.4800 0.0000
65.4900 0.0000
65.5000 1.4600
65.5100 1.4383
65.5200 0.0000
65.5300 0.0000
65.5400 0.0000
65.5500 0.0000
65.5600 0.9072
65.5700 0.2003
65.5800 0.1384
65.5900 0.1023
65.6000 0.8975
65.6100 0.2883
65.6200 0.7020
65.6300 0.4810
65.6400 2.0791
65.6500 0.4225
65.6600 0.0000
65.6700 2.0058
65.6800 1.9045
65.6900 0.0000
65.7000 0.0000
65.7100 1.1901
65.7200 0.7718
65.7300 0.9669
65.7400 0.0000
65.7500 0.0000
65.7600 0.0000
65.7700 2.0335
65.7800 0.0000
65.7900 0.0000
65.8000 0.0000
65.8100 0.0000
65.8200 0.0000
65.8300 0.0000
65.8400 0.4808
65.8500 0.5594
65.8600 2.0187
65.8700 0.0000
65.8800 2.9039
65.8900 0.1620
65.9000 0.0000
65.9100 0.1220
65.9200 0.8705
65.9300 0.0000
65.9400 0.0000
65.9500 0.0000
65.9600 0.0000
65.9700 0.0000
65.9800 0.0000
65.9900 0.0000
66.0000 0.8899
66.0100 1.0822
66.0200 1.8696
66.0300 1.0069
66.0400 0.3596
66.0500 1.1213
66.0600 0.5672
66.0700 0.0000
66.0800 0.0000
66.0900 1.0470
66.1000 0.0000
66.1100 0.0000
66.1200 1.1194
66.1300 0.8747
66.1400 0.0000
66.1500 0.9814
66.1600 0.0000
66.1700 0.0000
66.1800 0.6668
66.1900 0.3260
66.2000 0.9878
66.2100 0.0000
66.2200 1.9755
66.2300 0.9001
66.2400 1.4576
66.2500 1.4665
66.2600 0.0000
66.2700 0.5168
66.2800 1.0789
66.2900 1.3661
66.3000 2.0264
66.3100 0.9590
66.3200 0.1080
66.3300 0.0000
66.3400 0.0000
66.3500 0.0000
66.3600 0.0000
66.3700 0.0000
66.3800 0.9504
66.3900 0.6408
66.4000 0.3392
66.4100 0.8689
66.4200 1.0646
66.4300 1.1302
66.4400 0.0000
66.4500 1.0006
66.4600 1.0102
66.4700 2.2617
66.4800 1.8088
66.4900 0.5989
66.5000 0.4029
66.5100 0.0000
66.5200 0.0000
66.5300 0.0000
66.5400 1.0594
66.5500 2.0515
66.5600 1.1302
66.5700 1.7098
66.5800 0.9989
66.5900 0.0000
66.6000 0.9884
66.6100 0.0000
66.6200 1.0272
66.6300 0.8716
66.6400 1.0649
66.6500 0.1037
66.6600 0.8550
66.6700 0.0000
66.6800 0.0000
66.6900 0.4761
66.7000 1.4974
66.7100 0.0000
66.7200 0.0000
66.7300 0.8806
66.7400 0.1394
66.7500 0.1057
66.7600 1.9232
66.7700 0.0000
66.7800 0.0000
66.7900 0.0000
66.8000 0.0000
66.8100 0.0000
66.8200 0.0000
66.8300 0.8159
66.8400 0.1948
66.8500 2.9663
66.8600 0.0078
66.8700 0.0000
66.8800 0.0000
66.8900 0.0000
66.9000 0.0000
66.9100 0.5443
66.9200 0.4235
66.9300 0.7036
66.9400 1.1036
66.9500 0.1590
66.9600 0.0000
66.9700 0.0000
66.9800 0.0000
66.9900 1.0251
67.0000 0.0000
67.0100 0.0000
67.0200 0.0000
67.0300 0.0000
67.0400 0.0000
67.0500 0.0000
67.0600 0.0000
67.0700 0.0000
67.0800 0.0000
67.0900 0.0000
67.1000 0.0000
67.1100 0.0000
67.1200 1.1154
67.1300 0.9324
67.1400 1.0182
67.1500 0.0000
67.1600 0.0000
67.1700 0.9968
67.1800 0.0000
67.1900 0.0000
67.2000 0.9690
67.2100 0.0000
67.2200 0.0000
67.2300 1.0016
67.2400 0.0000
67.2500 0.0000
67.2600 0.0000
67.2700 0.0000
67.2800 0.0000
67.2900 0.0000
67.3000 0.0000
67.3100 0.0000
67.3200 0.0000
67.3300 0.0000
67.3400 0.0000
67.3500 0.0000
67.3600 0.0000
67.3700 1.9382
67.3800 0.0000
67.3900 1.0665
67.4000 0.0000
67.4100 0.9610
67.4200 0.0000
67.4300 0.0000
67.4400 1.6782
67.4500 0.4461
67.4600 0.9610
67.4700 0.0000
67.4800 0.0000
67.4900 1.0656
67.5000 1.0641
67.5100 0.8515
67.5200 0.0000
67.5300 0.0000
67.5400 1.4664
67.5500 0.4853
67.5600 0.0000
67.5700 0.0000
67.5800 0.0000
67.5900 0.0000
67.6000 2.0160
67.6100 0.9324
67.6200 0.2533
67.6300 0.7048
67.6400 1.4790
67.6500 1.5034
67.6600 0.0000
67.6700 0.7589
67.6800 0.2717
67.6900 0.0000
67.7000 0.0000
67.7100 0.0000
67.7200 0.0000
67.7300 0.0000
67.7400 0.0000
67.7500 0.0000
67.7600 0.0000
67.7700 0.0000
67.7800 0.7727
67.7900 0.2247
67.8000 1.0152
67.8100 0.0385
67.8200 0.0000
67.8300 0.0000
67.8400 0.9484
67.8500 0.4433
67.8600 1.5326
67.8700 0.0000
67.8800 1.4320
67.8900 0.5606
67.9000 2.7970
67.9100 1.1862
67.9200 0.1052
67.9300 2.2134
67.9400 0.7954
67.9500 0.0000
67.9600 0.0000
67.9700 1.6011
67.9800 0.4497
67.9900 1.0762
68.0000 0.9314
68.0100 1.1560
68.0200 0.9802
68.0300 1.0769
68.0400 0.0000
68.0500 0.3228
68.0600 1.0747
68.0700 0.5564
68.0800 0.0000
68.0900 0.0000
68.1000 0.0000
68.1100 0.0000
68.1200 1.0248
68.1300 1.0141
68.1400 0.9960
68.1500 1.0054
68.1600 0.0000
68.1700 0.0000
68.1800 0.0000
68.1900 0.0000
68.2000 0.0000
68.2100 2.9851
68.2200 0.0000
68.2300 2.0499
68.2400 0.6144
68.2500 5.7525
68.2600 1.1304
68.2700 2.5680
68.2800 0.4975
68.2900 0.5087
68.3000 0.0000
68.3100 0.0000
68.3200 0.0000
68.3300 1.0237
68.3400 0.9505
68.3500 0.1541
68.3600 0.8388
68.3700 0.0000
68.3800 0.0000
68.3900 1.4955
68.4000 1.0513
68.4100 1.0861
68.4200 0.2799
68.4300 1.0356
68.4400 0.0000
68.4500 0.9648
68.4600 1.0235
68.4700 0.0000
68.4800 0.0000
68.4900 0.0000
68.5000 0.5522
68.5100 2.0780
68.5200 0.3336
68.5300 0.0000
68.5400 0.0000
68.5500 0.0000
68.5600 0.0000
68.5700 0.0000
68.5800 0.3566
68.5900 1.8418
68.6000 0.0000
68.6100 0.0000
68.6200 0.0000
68.6300 0.0000
68.6400 0.0000
68.6500 0.0000
68.6600 1.0895
68.6700 1.2750
68.6800 2.7918
68.6900 0.0000
68.7000 0.0000
68.7100 0.0000
68.7200 0.0000
68.7300 0.0000
68.7400 0.0000
68.7500 1.0409
68.7600 0.0000
68.7700 0.0000
68.7800 0.9967
68.7900 1.0090
68.8000 0.0000
68.8100 0.0000
68.8200 1.5471
68.8300 1.3828
68.8400 0.0000
68.8500 0.0000
68.8600 0.0000
68.8700 0.0000
68.8800 0.0000
68.8900 0.0000
68.9000 0.9523
68.9100 0.5408
68.9200 2.3260
68.9300 0.8530
68.9400 0.9414
68.9500 0.2719
68.9600 0.8658
68.9700 0.0822
68.9800 0.0000
68.9900 0.0000
69.0000 0.0000
69.0100 0.3911
69.0200 0.6242
69.0300 0.0000
69.0400 0.6549
69.0500 1.8280
69.0600 0.4674
69.0700 0.9396
69.0800 0.0478
69.0900 0.0000
69.1000 1.0179
69.1100 0.0000
69.1200 0.0000
69.1300 0.0000
69.1400 0.9617
69.1500 1.0598
69.1600 0.0000
69.1700 1.8615
69.1800 0.1032
69.1900 0.0000
69.2000 0.0000
69.2100 0.0000
69.2200 0.0000
69.2300 0.0000
69.2400 0.0000
69.2500 0.0000
69.2600 1.0813
69.2700 0.0000
69.2800 0.0000
69.2900 0.0000
69.3000 0.0000
69.3100 0.0000
69.3200 1.2713
69.3300 0.6426
69.3400 0.0000
69.3500 0.0000
69.3600 0.7745
69.3700 1.3826
69.3800 0.8649
69.3900 0.1204
69.4000 0.1327
69.4100 1.8605
69.4200 0.2854
69.4300 0.8320
69.4400 0.4240
69.4500 0.5306
69.4600 0.6868
69.4700 1.3922
69.4800 0.8189
69.4900 0.1776
69.5000 3.0193
69.5100 0.1132
69.5200 1.9167
69.5300 0.0000
69.5400 0.0000
69.5500 0.0000
69.5600 0.0000
69.5700 0.0000
69.5800 0.8700
69.5900 0.2662
69.6000 0.9802
69.6100 1.0276
69.6200 0.9419
69.6300 0.0000
69.6400 0.0000
69.6500 0.0000
69.6600 0.0000
69.6700 1.5714
69.6800 2.3248
69.6900 1.1309
69.7000 0.2033
69.7100 0.0000
69.7200 0.9413
69.7300 0.0000
69.7400 0.9794
69.7500 1.0456
69.7600 0.0000
69.7700 0.5481
69.7800 0.4321
69.7900 0.9626
69.8000 0.8254
69.8100 0.1544
69.8200 0.0101
69.8300 0.3144
69.8400 0.1427
69.8500 0.5062
69.8600 1.5140
69.8700 0.6258
69.8800 0.0000
69.8900 0.0000
69.9000 0.0000
69.9100 0.0000
69.9200 0.0000
69.9300 0.0000
69.9400 0.0000
69.9500 0.0000
69.9600 0.0000
69.9700 0.0000
69.9800 0.0000
69.9900 0.9693
70.0000 0.0000
70.0100 0.7723
70.0200 2.9669
70.0300 0.1548
70.0400 0.0000
70.0500 0.0000
70.0600 0.9758
70.0700 0.0000
70.0800 0.0000
70.0900 0.5816
70.1000 1.7594
70.1100 1.3826
70.1200 1.0843
70.1300 1.1538
70.1400 0.0000
70.1500 0.0000
70.1600 0.0000
70.1700 0.0000
70.1800 0.0000
70.1900 0.0000
70.2000 0.0000
70.2100 0.0000
70.2200 0.0000
70.2300 0.0000
70.2400 0.0000
70.2500 0.0889
70.2600 0.8981
70.2700 0.2735
70.2800 0.7072
70.2900 0.0000
70.3000 0.0000
70.3100 0.0000
70.3200 0.0000
70.3300 0.0000
70.3400 0.0000
70.3500 0.0000
70.3600 0.9548
70.3700 0.0000
70.3800 0.0000
70.3900 0.0000
70.4000 2.4389
70.4100 0.4495
70.4200 1.0475
70.4300 1.0311
70.4400 0.0000
70.4500 0.0000
70.4600 0.9726
70.4700 0.0000
70.4800 0.0000
70.4900 0.9539
70.5000 0.0000
70.5100 0.0000
70.5200 0.0000
70.5300 0.0000
70.5400 0.7853
70.5500 0.1636
70.5600 1.0546
70.5700 0.1154
70.5800 1.8443
70.5900 0.0000
70.6000 0.9854
70.6100 0.0000
70.6200 0.0000
70.6300 0.0000
70.6400 0.0000
70.6500 1.8607
70.6600 0.1335
70.6700 0.0000
70.6800 0.1463
70.6900 0.8349
70.7000 0.0000
70.7100 0.1341
70.7200 0.1762
70.7300 0.3854
70.7400 1.6340
70.7500 1.5625
70.7600 0.0000
70.7700 0.9778
70.7800 0.0000
70.7900 1.0917
70.8000 0.9810
70.8100 0.0000
70.8200 0.0000
70.8300 0.9821
70.8400 0.0000
70.8500 0.0000
70.8600 1.0303
70.8700 0.9958
70.8800 0.0000
70.8900 0.0000
70.9000 0.0000
70.9100 0.0000
70.9200 0.0000
70.9300 0.0000
70.9400 0.6604
70.9500 2.1480
70.9600 0.3063
70.9700 0.9884
70.9800 1.9604
70.9900 1.1452
71.0000 0.1785
71.0100 0.8735
71.0200 0.3472
71.0300 0.6212
71.0400 0.0000
71.0500 0.0000
71.0600 0.0000
71.0700 0.0000
71.0800 0.0000
71.0900 0.0000
71.1000 0.1160
71.1100 1.9072
71.1200 0.0000
71.1300 0.0000
71.1400 2.4658
71.1500 1.0830
71.1600 3.3776
71.1700 0.0000
71.1800 0.8423
71.1900 1.0857
71.2000 1.0861
71.2100 1.8134
71.2200 0.0000
71.2300 0.6798
71.2400 1.3152
71.2500 1.0316
71.2600 0.6736
71.2700 0.4060
71.2800 0.9946
71.2900 0.0000
71.3000 0.0000
71.3100 0.0000
71.3200 0.0000
71.3300 0.0000
71.3400 0.7318
71.3500 1.1986
71.3600 0.5428
71.3700 0.4130
71.3800 0.9258
71.3900 0.0000
71.4000 0.9658
71.4100 0.0000
71.4200 2.0459
71.4300 0.0000
71.4400 0.3311
71.4500 1.1213
71.4600 0.5965
71.4700 1.9844
71.4800 1.0598
71.4900 0.0000
71.5000 0.0000
71.5100 1.0440
71.5200 0.0000
71.5300 0.0000
71.5400 0.9355
71.5500 0.0000
71.5600 0.0000
71.5700 0.0000
71.5800 0.6202
71.5900 1.0854
71.6000 0.2626
71.6100 0.0000
71.6200 0.0000
71.6300 0.0000
71.6400 2.8868
71.6500 0.0000
71.6600 1.4385
71.6700 1.1479
71.6800 1.5924
71.6900 0.0000
71.7000 0.0000
71.7100 1.8911
71.7200 3.0186
71.7300 1.1549
71.7400 1.8301
71.7500 1.0439
71.7600 0.3294
71.7700 0.6291
71.7800 0.0000
71.7900 0.0000
71.8000 0.9810
71.8100 0.9776
71.8200 1.0128
71.8300 0.0000
71.8400 0.1003
71.8500 0.9150
71.8600 0.0000
71.8700 0.0000
71.8800 0.4614
71.8900 0.5072
71.9000 1.6325
71.9100 0.3422
71.9200 0.0000
71.9300 0.9134
71.9400 0.0497
71.9500 0.9878
71.9600 0.0000
71.9700 1.9424
71.9800 1.3477
71.9900 1.6187
72.0000 0.0000
72.0100 0.0000
72.0200 1.0056
72.0300 0.0000
72.0400 0.0000
72.0500 0.0000
72.0600 0.0000
72.0700 0.0000
72.0800 0.0000
72.0900 0.0000
72.1000 0.0000
72.1100 0.0000
72.1200 0.0000
72.1300 0.0000
72.1400 0.0000
72.1500 0.0000
72.1600 0.0000
72.1700 0.2077
72.1800 0.7636
72.1900 0.0000
72.2000 0.0000
72.2100 0.0000
72.2200 0.0000
72.2300 1.0131
72.2400 0.0000
72.2500 0.0000
72.2600 0.0000
72.2700 0.0000
72.2800 0.0000
72.2900 0.0000
72.3000 1.4274
72.3100 1.5172
72.3200 0.0000
72.3300 3.5401
72.3400 0.5630
72.3500 0.0000
72.3600 0.0000
72.3700 0.0000
72.3800 0.0000
72.3900 0.2837
72.4000 1.0686
72.4100 1.0843
72.4200 0.5255
72.4300 0.0000
72.4400 0.7882
72.4500 0.2455
72.4600 1.8817
72.4700 1.0733
72.4800 0.0000
72.4900 0.9598
72.5000 0.0000
72.5100 0.0000
72.5200 0.5148
72.5300 0.4797
72.5400 0.0000
72.5500 1.0290
72.5600 0.0000
72.5700 0.0000
72.5800 0.0000
72.5900 0.0000
72.6000 0.0000
72.6100 0.0000
72.6200 0.9441
72.6300 0.0000
72.6400 1.3554
72.6500 2.4965
72.6600 0.2535
72.6700 0.0000
72.6800 0.0000
72.6900 0.0000
72.7000 0.2407
72.7100 0.8697
72.7200 0.3911
72.7300 1.0793
72.7400 0.5061
72.7500 0.0000
72.7600 0.0000
72.7700 0.0000
72.7800 0.9093
72.7900 0.1572
72.8000 3.0278
72.8100 0.2623
72.8200 2.4781
72.8300 1.7006
72.8400 1.5364
72.8500 0.0000
72.8600 0.6817
72.8700 2.1702
72.8800 0.1936
72.8900 0.9990
72.9000 0.9274
72.9100 0.1861
72.9200 0.7489
72.9300 0.9530
72.9400 0.0000
72.9500 0.0000
72.9600 0.0000
72.9700 0.9852
72.9800 0.9883
72.9900 0.0000
73.0000 0.0000
73.0100 0.0000
73.0200 0.0000
73.0300 0.0000
73.0400 0.0000
73.0500 0.0000
73.0600 0.0000
73.0700 1.3900
73.0800 2.2895
73.0900 1.9673
73.1000 0.2022
73.1100 0.0000
73.1200 0.0000
73.1300 0.0000
73.1400 0.0000
73.1500 2.1911
73.1600 0.0000
73.1700 0.0000
73.1800 0.0000
73.1900 0.0000
73.2000 0.0000
73.2100 0.9537
73.2200 1.0596
73.2300 0.0000
73.2400 0.3214
73.2500 0.7021
73.2600 0.5379
73.2700 0.5318
73.2800 0.0000
73.2900 0.0000
73.3000 0.0000
73.3100 0.0000
73.3200 0.0000
73.3300 0.9442
73.3400 0.0000
73.3500 0.0000
73.3600 1.9074
73.3700 0.5323
73.3800 0.8646
73.3900 0.2370
73.4000 1.0575
73.4100 1.1676
73.4200 0.0833
73.4300 0.0000
73.4400 0.0000
73.4500 0.2785
73.4600 2.3957
73.4700 1.1920
73.4800 0.0000
73.4900 0.0000
73.5000 0.9900
73.5100 0.0000
73.5200 0.0000
73.5300 0.0000
73.5400 0.1401
73.5500 1.0401
73.5600 0.6956
73.5700 0.9710
73.5800 0.0000
73.5900 0.0000
73.6000 1.0480
73.6100 0.0000
73.6200 0.0000
73.6300 0.0000
73.6400 1.9797
73.6500 0.3784
73.6600 1.6760
73.6700 0.0000
73.6800 0.4853
73.6900 0.5530
73.7000 0.0000
73.7100 0.0000
73.7200 0.0000
73.7300 0.0000
73.7400 0.9427
73.7500 0.0000
73.7600 0.0000
73.7700 0.9917
73.7800 0.0000
73.7900 0.0000
73.8000 0.0000
73.8100 0.0000
73.8200 0.0000
73.8300 1.0361
73.8400 0.0000
73.8500 0.0000
73.8600 0.9870
73.8700 0.0000
73.8800 1.3838
73.8900 0.6458
73.9000 0.9620
73.9100 0.0000
73.9200 0.0000
73.9300 0.0000
73.9400 0.9906
73.9500 0.0000
73.9600 0.0000
73.9700 0.0000
73.9800 0.3154
73.9900 0.7386
74.0000 0.0000
74.0100 1.5806
74.0200 0.4174
74.0300 0.9743
74.0400 0.0000
74.0500 0.0000
74.0600 0.0000
74.0700 0.0000
74.0800 0.0000
74.0900 0.0000
74.1000 0.0000
74.1100 0.0000
74.1200 0.0000
74.1300 0.9871
74.1400 0.0000
74.1500 1.8243
74.1600 0.0928
74.1700 0.9618
74.1800 0.0000
74.1900 1.0983
74.2000 0.3559
74.2100 1.7261
74.2200 0.5797
74.2300 1.1155
74.2400 1.3684
74.2500 0.8008
74.2600 1.1342
74.2700 1.0930
74.2800 1.0733
74.2900 0.0000
74.3000 0.0000
74.3100 0.0000
74.3200 0.0000
74.3300 0.0000
74.3400 0.0000
74.3500 0.0000
74.3600 0.0000
74.3700 0.0000
74.3800 0.0742
74.3900 1.8990
74.4000 0.0000
74.4100 0.0000
74.4200 0.0000
74.4300 0.0000
74.4400 0.0000
74.4500 0.0000
74.4600 0.0000
74.4700 0.0000
74.4800 0.0000
74.4900 0.1117
74.5000 0.8741
74.5100 0.0000
74.5200 0.0000
74.5300 0.0000
74.5400 0.0000
74.5500 2.6390
74.5600 0.3091
74.5700 0.0000
74.5800 0.0000
74.5900 1.0178
74.6000 0.0000
74.6100 0.0000
74.6200 0.0000
74.6300 0.0000
74.6400 1.0289
74.6500 0.0000
74.6600 0.9880
74.6700 1.8513
74.6800 0.1950
74.6900 0.0000
74.7000 0.0000
74.7100 0.0000
74.7200 0.0000
74.7300 0.3727
74.7400 1.0923
74.7500 1.0956
74.7600 0.4267
74.7700 0.0000
74.7800 0.0000
74.7900 0.9940
74.8000 0.0000
74.8100 0.0000
74.8200 0.0000
74.8300 0.0000
74.8400 0.0000
74.8500 0.0000
74.8600 1.5590
74.8700 0.3771
74.8800 0.0000
74.8900 0.0000
74.9000 0.0000
74.9100 0.0736
74.9200 0.8709
74.9300 0.0000
74.9400 0.0000
74.9500 0.0000
74.9600 0.6350
74.9700 0.5199
74.9800 0.7562
74.9900 0.2676
75.0000 0.9532
75.0100 1.9815
75.0200 1.0088
75.0300 0.0000
75.0400 0.0000
75.0500 1.0372
75.0600 0.9598
75.0700 0.0000
75.0800 1.6131
75.0900 0.2977
75.1000 0.0000
75.1100 0.0000
75.1200 0.0000
75.1300 0.0000
75.1400 0.0000
75.1500 0.0000
75.1600 0.0000
75.1700 0.0000
75.1800 0.6159
75.1900 0.3671
75.2000 0.7939
75.2100 0.1798
75.2200 1.0532
75.2300 0.0000
75.2400 0.0000
75.2500 0.0000
75.2600 0.0000
75.2700 0.0000
75.2800 0.0000
75.2900 1.0981
75.3000 0.0000
75.3100 0.0000
75.3200 0.0000
75.3300 0.9666
75.3400 0.0000
75.3500 0.0000
75.3600 1.2685
75.3700 0.6452
75.3800 0.9443
75.3900 0.0000
75.4000 0.9600
75.4100 0.0000
75.4200 0.0000
75.4300 1.0544
75.4400 0.0000
75.4500 0.1854
75.4600 0.8732
75.4700 0.0000
75.4800 0.0000
75.4900 0.0000
75.5000 0.0000
75.5100 0.0000
75.5200 0.9800
75.5300 0.0000
75.5400 0.0000
75.5500 0.0000
75.5600 0.2123
75.5700 1.0740
75.5800 0.6562
75.5900 0.0000
75.6000 0.0000
75.6100 0.0000
75.6200 0.0000
75.6300 0.9489
75.6400 0.0000
75.6500 0.0000
75.6600 0.9927
75.6700 0.9520
75.6800 0.0000
75.6900 0.9875
75.7000 0.0000
75.7100 0.9814
75.7200 0.0000
75.7300 0.7985
75.7400 0.1774
75.7500 0.0000
75.7600 0.0000
75.7700 0.0000
75.7800 0.0000
75.7900 0.0000
75.8000 0.0000
75.8100 3.1537
75.8200 0.0000
75.8300 0.0000
75.8400 1.7456
75.8500 0.2923
75.8600 0.0000
75.8700 0.9873
75.8800 0.9422
75.8900 0.6657
75.9000 2.3852
75.9100 1.0284
75.9200 0.0000
75.9300 2.9560
75.9400 0.0000
75.9500 0.0000
75.9600 0.0000
75.9700 0.0000
75.9800 0.0000
75.9900 0.0000
76.0000 0.9928
76.0100 0.0000
76.0200 0.0000
76.0300 1.0084
76.0400 1.5324
76.0500 1.4440
76.0600 0.0000
76.0700 0.0000
76.0800 0.0000
76.0900 0.2188
76.1000 2.9795
76.1100 0.0000
76.1200 0.0000
76.1300 0.0000
76.1400 0.6372
76.1500 0.2884
76.1600 0.0000
76.1700 0.0000
76.1800 0.0640
76.1900 1.8567
76.2000 0.2610
76.2100 0.7635
76.2200 0.0000
76.2300 0.0000
76.2400 0.5896
76.2500 1.0740
76.2600 0.2749
76.2700 0.0000
76.2800 0.0000
76.2900 0.0000
76.3000 1.2044
76.3100 0.8252
76.3200 0.0000
76.3300 0.4547
76.3400 0.4889
76.3500 0.9925
76.3600 0.0000
76.3700 0.8661
76.3800 0.1416
76.3900 0.0956
76.4000 2.8733
76.4100 0.0000
76.4200 0.0000
76.4300 0.0000
76.4400 0.5167
76.4500 1.0704
76.4600 0.3724
76.4700 0.8721
76.4800 0.2134
76.4900 0.0000
76.5000 0.0000
76.5100 0.0000
76.5200 0.2860
76.5300 0.7527
76.5400 0.0000
76.5500 0.0000
76.5600 1.0515
76.5700 0.0000
76.5800 0.0000
76.5900 1.0260
76.6000 0.0300
76.6100 0.9538
76.6200 0.0000
76.6300 0.0000
76.6400 0.0000
76.6500 0.9910
76.6600 0.0000
76.6700 1.1684
76.6800 0.0000
76.6900 0.8960
76.7000 1.1270
76.7100 1.0324
76.7200 0.0000
76.7300 0.9288
76.7400 0.0000
76.7500 0.4403
76.7600 0.5459
76.7700 0.0000
76.7800 0.0000
76.7900 1.9771
76.8000 0.0000
76.8100 0.0000
76.8200 0.0000
76.8300 0.0000
76.8400 0.2930
76.8500 0.6970
76.8600 0.4806
76.8700 1.4871
76.8800 0.0000
76.8900 0.0000
76.9000 0.0000
76.9100 0.0000
76.9200 0.0000
76.9300 0.9759
76.9400 0.0000
76.9500 0.0000
76.9600 1.5215
76.9700 0.5366
76.9800 0.0000
76.9900 0.0000
77.0000 0.0000
77.0100 0.8629
77.0200 1.1212
77.0300 0.9887
77.0400 0.0000
77.0500 1.0311
77.0600 0.3554
77.0700 0.5983
77.0800 0.0000
77.0900 0.6633
77.1000 0.3481
77.1100 0.0000
77.1200 0.0000
77.1300 0.0000
77.1400 0.0000
77.1500 0.0000
77.1600 0.0000
77.1700 0.4233
77.1800 0.6066
77.1900 0.5937
77.2000 0.3961
77.2100 0.0000
77.2200 0.0000
77.2300 0.0000
77.2400 0.0000
77.2500 0.0000
77.2600 0.0000
77.2700 0.0000
77.2800 0.4374
77.2900 0.5360
77.3000 0.6205
77.3100 1.3576
77.3200 0.0000
77.3300 0.0000
77.3400 3.0750
77.3500 2.0566
77.3600 3.0833
77.3700 1.7513
77.3800 0.1247
77.3900 0.1924
77.4000 0.9637
77.4100 0.6919
77.4200 0.0000
77.4300 0.8581
77.4400 0.1336
77.4500 1.0544
77.4600 0.0000
77.4700 0.0000
77.4800 0.3383
77.4900 0.6648
77.5000 1.0276
77.5100 0.0000
77.5200 2.6372
77.5300 0.2838
77.5400 1.0409
77.5500 0.0000
77.5600 0.0000
77.5700 0.0000
77.5800 0.9895
77.5900 0.0000
77.6000 0.0000
77.6100 0.0000
77.6200 0.0000
77.6300 0.0000
77.6400 0.0000
77.6500 0.0000
77.6600 1.1297
77.6700 1.9056
77.6800 0.2121
77.6900 0.7301
77.7000 0.9475
77.7100 1.9770
77.7200 0.0000
77.7300 0.0000
77.7400 0.0000
77.7500 0.0000
77.7600 0.0000
77.7700 0.0000
77.7800 0.0000
77.7900 0.0000
77.8000 1.3741
77.8100 0.6160
77.8200 0.0000
77.8300 0.6610
77.8400 2.8774
77.8500 0.5136
77.8600 0.9286
77.8700 1.0451
77.8800 0.1132
77.8900 1.0926
77.9000 0.7812
77.9100 0.0000
77.9200 0.0000
77.9300 1.0458
77.9400 0.0000
77.9500 0.0000
77.9600 0.0000
77.9700 0.0000
77.9800 0.9513
77.9900 0.9748
78.0000 0.0000
78.0100 0.0000
78.0200 0.0000
78.0300 1.9235
78.0400 0.0000
78.0500 0.0000
78.0600 0.8037
78.0700 1.1706
78.0800 1.1278
78.0900 1.0217
78.1000 1.1778
78.1100 1.0527
78.1200 1.0720
78.1300 0.6101
78.1400 0.0000
78.1500 1.6367
78.1600 0.3307
78.1700 1.7405
78.1800 0.3061
78.1900 0.0000
78.2000 0.0000
78.2100 0.0000
78.2200 0.3042
78.2300 0.6393
78.2400 0.4829
78.2500 1.0662
78.2600 0.3937
78.2700 1.0050
78.2800 0.0000
78.2900 0.0000
78.3000 0.0000
78.3100 0.0000
78.3200 1.0282
78.3300 0.3536
78.3400 0.6266
78.3500 0.0000
78.3600 0.0000
78.3700 0.0000
78.3800 0.0000
78.3900 0.9319
78.4000 0.0000
78.4100 0.0000
78.4200 0.0000
78.4300 0.0000
78.4400 0.0000
78.4500 0.0000
78.4600 0.0000
78.4700 0.0000
78.4800 0.0000
78.4900 0.9854
78.5000 0.0000
78.5100 0.0000
78.5200 0.9980
78.5300 0.0000
78.5400 0.0000
78.5500 0.0000
78.5600 0.0000
78.5700 0.5973
78.5800 2.1184
78.5900 0.2820
78.6000 0.0000
78.6100 0.9867
78.6200 0.0986
78.6300 1.8716
78.6400 0.0000
78.6500 0.0000
78.6600 0.0000
78.6700 0.0000
78.6800 0.0000
78.6900 0.0000
78.7000 0.8133
78.7100 0.1398
78.7200 0.0000
78.7300 0.0000
78.7400 0.2261
78.7500 1.0673
78.7600 0.6516
78.7700 0.0000
78.7800 0.9537
78.7900 0.0000
78.8000 0.7770
78.8100 0.1975
78.8200 2.2418
78.8300 0.1112
78.8400 0.9090
78.8500 1.0306
78.8600 1.0179
78.8700 0.0000
78.8800 0.0000
78.8900 1.6553
78.9000 0.3563
78.9100 1.7452
78.9200 1.3269
78.9300 0.0000
78.9400 0.0000
78.9500 0.9788
78.9600 0.0000
78.9700 0.4362
78.9800 1.5981
78.9900 0.0000
79.0000 0.0000
79.0100 0.7341
79.0200 1.2873
79.0300 1.9769
79.0400 0.0000
79.0500 0.0000
79.0600 0.9646
79.0700 2.4604
79.0800 0.7480
79.0900 0.0000
79.1000 0.0000
79.1100 1.0316
79.1200 0.0000
79.1300 0.9526
79.1400 0.0000
79.1500 0.0927
79.1600 0.8241
79.1700 0.3016
79.1800 0.7389
79.1900 0.4904
79.2000 1.0914
79.2100 0.4152
79.2200 0.0000
79.2300 0.0000
79.2400 0.0000
79.2500 0.0000
79.2600 0.1416
79.2700 0.8743
79.2800 0.0000
79.2900 0.9502
79.3000 0.9404
79.3100 2.1335
79.3200 0.7443
79.3300 0.0000
79.3400 0.0000
79.3500 0.0000
79.3600 0.9814
79.3700 0.9574
79.3800 1.0320
79.3900 0.0000
79.4000 0.0000
79.4100 0.0000
79.4200 0.0000
79.4300 0.0000
79.4400 0.0000
79.4500 0.9662
79.4600 1.0068
79.4700 0.0000
79.4800 0.0000
79.4900 0.0000
79.5000 1.0455
79.5100 1.4870
79.5200 0.4960
79.5300 0.0000
79.5400 1.9574
79.5500 1.8152
79.5600 2.1316
79.5700 0.1251
79.5800 1.9361
79.5900 1.0697
79.6000 0.7310
79.6100 1.4065
79.6200 0.5311
79.6300 0.6169
79.6400 2.0581
79.6500 0.2635
79.6600 0.8588
79.6700 0.0796
79.6800 0.1034
79.6900 1.8374
79.7000 0.2971
79.7100 1.4680
79.7200 1.1875
79.7300 0.0000
79.7400 0.0000
79.7500 0.0000
79.7600 0.8469
79.7700 0.1389
79.7800 0.0000
79.7900 0.0000
79.8000 0.9554
79.8100 0.0000
79.8200 0.0000
79.8300 0.0000
79.8400 0.0000
79.8500 0.6903
79.8600 0.2838
79.8700 0.8952
79.8800 0.1023
79.8900 0.9833
79.9000 0.0000
79.9100 1.0213
79.9200 0.0000
79.9300 0.0000
79.9400 0.0000
79.9500 0.0000
79.9600 1.0293
79.9700 0.0000
79.9800 0.0000
79.9900 0.0304
80.0000 1.0961
80.0100 1.8098
80.0200 0.0000
80.0300 0.4236
80.0400 0.6151
80.0500 0.6008
80.0600 0.4063
80.0700 0.0000
80.0800 0.0000
80.0900 0.0000
80.1000 0.9691
80.1100 0.0000
80.1200 0.2507
80.1300 2.0414
80.1400 0.6167
80.1500 0.0000
80.1600 0.6544
80.1700 2.0963
80.1800 1.2663
80.1900 0.0000
80.2000 1.1299
80.2100 0.0000
80.2200 0.0000
80.2300 1.0132
80.2400 0.0000
80.2500 0.0000
80.2600 0.9899
80.2700 0.0000
80.2800 1.0003
80.2900 1.7008
80.3000 0.2722
80.3100 0.0518
80.3200 0.9677
80.3300 0.0000
80.3400 0.0000
80.3500 1.8341
80.3600 2.2722
80.3700 1.0294
80.3800 0.0000
80.3900 0.0000
80.4000 0.0000
80.4100 0.0000
80.4200 0.0000
80.4300 0.0000
80.4400 0.0000
80.4500 0.3756
80.4600 1.0740
80.4700 0.5036
80.4800 0.0000
80.4900 0.0000
80.5000 0.0000
80.5100 0.0000
80.5200 0.0339
80.5300 0.9907
80.5400 0.0000
80.5500 0.0000
80.5600 0.0000
80.5700 0.0000
80.5800 0.6583
80.5900 0.4398
80.6000 1.0226
80.6100 0.9723
80.6200 2.0111
80.6300 0.0472
80.6400 1.9592
80.6500 0.0000
80.6600 0.0000
80.6700 0.0000
80.6800 2.0205
80.6900 0.9404
80.7000 0.0000
80.7100 0.0000
80.7200 0.0000
80.7300 0.0000
80.7400 0.0000
80.7500 1.9885
80.7600 0.0000
80.7700 0.0000
80.7800 0.0000
80.7900 0.0000
80.8000 0.0000
80.8100 0.0000
80.8200 0.9929
80.8300 0.0000
80.8400 0.0000
80.8500 0.0000
80.8600 0.0000
80.8700 0.0000
80.8800 0.2968
80.8900 0.3914
80.9000 0.0000
80.9100 1.4957
80.9200 0.5977
80.9300 0.0000
80.9400 0.0000
80.9500 0.9657
80.9600 0.0000
80.9700 0.0000
80.9800 1.0045
80.9900 0.0000
81.0000 0.0000
81.0100 0.0000
81.0200 0.0000
81.0300 0.0000
81.0400 0.0000
81.0500 0.0000
81.0600 1.0957
81.0700 1.0759
81.0800 1.7296
81.0900 0.0000
81.1000 0.0000
81.1100 1.0094
81.1200 1.9842
81.1300 0.0000
81.1400 0.0000
81.1500 0.0000
81.1600 0.0724
81.1700 1.8679
81.1800 0.0000
81.1900 0.0000
81.2000 0.0000
81.2100 1.4968
81.2200 2.0565
81.2300 0.3681
81.2400 1.8992
81.2500 0.1650
81.2600 0.0000
81.2700 0.0000
81.2800 1.0652
81.2900 0.9640
81.3000 0.0000
81.3100 0.9557
81.3200 1.9668
81.3300 0.0000
81.3400 0.0000
81.3500 0.0000
81.3600 0.9423
81.3700 0.0370
81.3800 0.0000
81.3900 0.0000
81.4000 0.0000
81.4100 0.0000
81.4200 1.0072
81.4300 0.0000
81.4400 0.0000
81.4500 0.0000
81.4600 0.0000
81.4700 0.0000
81.4800 0.0939
81.4900 1.8916
81.5000 0.0000
81.5100 0.9846
81.5200 0.0000
81.5300 0.9843
81.5400 0.0000
81.5500 1.1430
81.5600 2.9063
81.5700 1.0843
81.5800 1.0320
81.5900 0.0000
81.6000 0.2238
81.6100 0.7590
81.6200 0.0000
81.6300 0.0000
81.6400 0.0000
81.6500 0.6935
81.6600 0.2977
81.6700 0.0000
81.6800 0.0000
81.6900 1.0222
81.7000 0.0000
81.7100 0.0000
81.7200 1.3149
81.7300 2.1130
81.7400 0.5766
81.7500 1.0769
81.7600 0.0000
81.7700 1.0035
81.7800 0.0000
81.7900 1.0191
81.8000 0.0000
81.8100 0.0000
81.8200 0.9296
81.8300 2.1244
81.8400 1.4961
81.8500 0.5165
81.8600 0.0000
81.8700 0.0000
81.8800 0.9750
81.8900 0.0000
81.9000 2.0474
81.9100 1.2247
81.9200 0.8525
81.9300 0.0000
81.9400 0.0000
81.9500 1.5015
81.9600 1.3234
81.9700 1.7380
81.9800 0.2584
81.9900 0.0000
82.0000 0.0000
82.0100 0.0000
82.0200 0.9549
82.0300 1.3029
82.0400 1.2400
82.0500 2.0487
82.0600 3.6752
82.0700 1.8314
82.0800 1.4929
82.0900 2.1575
82.1000 0.2899
82.1100 3.2096
82.1200 2.5687
82.1300 5.1802
82.1400 2.7303
82.1500 5.1371
82.1600 5.4251
82.1700 6.4710
82.1800 3.0981
82.1900 4.2316
82.2000 4.0247
82.2100 1.7312
82.2200 2.1153
82.2300 4.5125
82.2400 4.1381
82.2500 2.4462
82.2600 3.3149
82.2700 3.7330
82.2800 1.5586
82.2900 2.7083
82.3000 4.9814
82.3100 0.3310
82.3200 3.3964
82.3300 2.1192
82.3400 0.0000
82.3500 1.3145
82.3600 2.7693
82.3700 2.9829
82.3800 1.5836
82.3900 0.4159
82.4000 2.2762
82.4100 0.6448
82.4200 1.0380
82.4300 2.0633
82.4400 1.0319
82.4500 0.0000
82.4600 0.9621
82.4700 0.4326
82.4800 0.5505
82.4900 0.9642
82.5000 0.0000
82.5100 0.7992
82.5200 1.1628
82.5300 0.9686
82.5400 0.0000
82.5500 0.2000
82.5600 2.0264
82.5700 0.0000
82.5800 1.4589
82.5900 2.0588
82.6000 0.4336
82.6100 0.0000
82.6200 1.7686
82.6300 0.0000
82.6400 0.0000
82.6500 0.0000
82.6600 0.0000
82.6700 0.0000
82.6800 0.0000
82.6900 0.0000
82.7000 0.0000
82.7100 0.0000
82.7200 0.0000
82.7300 0.0000
82.7400 0.0000
82.7500 0.0848
82.7600 0.9361
82.7700 0.0000
82.7800 0.0000
82.7900 0.0000
82.8000 0.0000
82.8100 0.9820
82.8200 0.0000
82.8300 0.0000
82.8400 0.8907
82.8500 0.0644
82.8600 0.0000
82.8700 1.0211
82.8800 1.0100
82.8900 0.0000
82.9000 0.0000
82.9100 0.0000
82.9200 0.0000
82.9300 0.0000
82.9400 1.0442
82.9500 0.0000
82.9600 0.0000
82.9700 0.0000
82.9800 0.0000
82.9900 0.0000
83.0000 0.0000
83.0100 0.5368
83.0200 1.0788
83.0300 1.3193
83.0400 0.0000
83.0500 0.9998
83.0600 0.0930
83.0700 0.9855
83.0800 0.9525
83.0900 0.0000
83.1000 0.0000
83.1100 0.0000
83.1200 0.5732
83.1300 2.6951
83.1400 0.6397
83.1500 0.0000
83.1600 0.9442
83.1700 0.0932
83.1800 1.9449
83.1900 0.0000
83.2000 1.0022
83.2100 0.0000
83.2200 1.5153
83.2300 0.4829
83.2400 1.0098
83.2500 0.0000
83.2600 3.0021
83.2700 0.1036
83.2800 1.0109
83.2900 2.0413
83.3000 1.0035
83.3100 0.0000
83.3200 0.0000
83.3300 1.0072
83.3400 0.0000
83.3500 0.0000
83.3600 0.0000
83.3700 0.0000
83.3800 0.9995
83.3900 1.0319
83.4000 0.0000
83.4100 0.0000
83.4200 0.0000
83.4300 0.0000
83.4400 1.0217
83.4500 1.3585
83.4600 0.6085
83.4700 0.0000
83.4800 0.0000
83.4900 3.0071
83.5000 0.0000
83.5100 1.0779
83.5200 0.0000
83.5300 0.0000
83.5400 0.0000
83.5500 0.0000
83.5600 0.7105
83.5700 1.0782
83.5800 1.1636
83.5900 1.0268
83.6000 0.9247
83.6100 0.9960
83.6200 0.3218
83.6300 1.1667
83.6400 1.1049
83.6500 0.5116
83.6600 0.6671
83.6700 2.0307
83.6800 0.2206
83.6900 1.0096
83.7000 1.0046
83.7100 0.0000
83.7200 0.2391
83.7300 1.7336
83.7400 0.0000
83.7500 0.5256
83.7600 0.4804
83.7700 0.0000
83.7800 0.0000
83.7900 1.0355
83.8000 1.9403
83.8100 0.0054
83.8200 1.1891
83.8300 1.8888
83.8400 0.0000
83.8500 0.0000
83.8600 0.0000
83.8700 0.0000
83.8800 0.7305
83.8900 1.2580
83.9000 0.0000
83.9100 1.1509
83.9200 0.0000
83.9300 0.0000
83.9400 0.0000
83.9500 0.0000
83.9600 0.0000
83.9700 0.0000
83.9800 0.0000
83.9900 0.7472
84.0000 1.1241
84.0100 1.0997
84.0200 0.0000
84.0300 0.0000
84.0400 0.0000
84.0500 0.0000
84.0600 0.4395
84.0700 0.5400
84.0800 0.0000
84.0900 0.0000
84.1000 0.9694
84.1100 0.0000
84.1200 0.0000
84.1300 0.0000
84.1400 2.0413
84.1500 0.9964
84.1600 1.1713
84.1700 1.8116
84.1800 1.1446
84.1900 1.9014
84.2000 1.7471
84.2100 1.9372
84.2200 0.2678
84.2300 0.0000
84.2400 1.9865
84.2500 1.2198
84.2600 2.0932
84.2700 1.7778
84.2800 0.4952
84.2900 0.4473
84.3000 0.7357
84.3100 0.2944
84.3200 0.0000
84.3300 0.8891
84.3400 0.0023
84.3500 0.2081
84.3600 0.9097
84.3700 0.0000
84.3800 0.0000
84.3900 0.9610
84.4000 0.0000
84.4100 0.0000
84.4200 0.0000
84.4300 0.0000
84.4400 0.9944
84.4500 0.1241
84.4600 1.0551
84.4700 0.7791
84.4800 0.0000
84.4900 0.4951
84.5000 0.4802
84.5100 1.7604
84.5200 2.2802
84.5300 0.8556
84.5400 0.1109
84.5500 0.0705
84.5600 0.8820
84.5700 0.9537
84.5800 0.0000
84.5900 0.4404
84.6000 1.1729
84.6100 1.2198
84.6200 0.3870
84.6300 0.0000
84.6400 0.9683
84.6500 0.0000
84.6600 0.1138
84.6700 1.1129
84.6800 0.8219
84.6900 0.0000
84.7000 0.0000
84.7100 0.5691
84.7200 1.7917
84.7300 0.6564
84.7400 0.0000
84.7500 1.9523
84.7600 0.0385
84.7700 0.0000
84.7800 0.0000
84.7900 0.3427
84.8000 0.6668
84.8100 0.0000
84.8200 1.0166
84.8300 0.0000
84.8400 0.0000
84.8500 0.0000
84.8600 0.9834
84.8700 0.9818
84.8800 0.1402
84.8900 0.0000
84.9000 0.9815
84.9100 0.0000
84.9200 0.0000
84.9300 0.0000
84.9400 0.0000
84.9500 0.0000
84.9600 0.0000
84.9700 0.0387
84.9800 1.2243
84.9900 1.9111
85.0000 2.3402
85.0100 1.7766
85.0200 0.5540
85.0300 0.5962
85.0400 0.3893
85.0500 0.0000
85.0600 0.0000
85.0700 0.9780
85.0800 1.0244
85.0900 0.0000
85.1000 0.3013
85.1100 1.1901
85.1200 1.1340
85.1300 0.5984
85.1400 1.0478
85.1500 0.7497
85.1600 0.2666
85.1700 0.0000
85.1800 0.0209
85.1900 0.9804
85.2000 0.0000
85.2100 0.0000
85.2200 0.0000
85.2300 1.0797
85.2400 0.0000
85.2500 0.0000
85.2600 0.0000
85.2700 0.0000
85.2800 0.0000
85.2900 0.0000
85.3000 0.0000
85.3100 0.0000
85.3200 0.0000
85.3300 0.9723
85.3400 0.0000
85.3500 0.0000
85.3600 1.0219
85.3700 0.9894
85.3800 0.0000
85.3900 0.0000
85.4000 1.0182
85.4100 0.0000
85.4200 0.0000
85.4300 0.0000
85.4400 0.5144
85.4500 1.5510
85.4600 0.0000
85.4700 0.0000
85.4800 0.0000
85.4900 0.0000
85.5000 3.0303
85.5100 0.0000
85.5200 1.1694
85.5300 0.7496
85.5400 1.0017
85.5500 0.5241
85.5600 1.1444
85.5700 1.8280
85.5800 2.6293
85.5900 0.0000
85.6000 0.0000
85.6100 0.0000
85.6200 1.0001
85.6300 0.0000
85.6400 0.9970
85.6500 0.4566
85.6600 0.5416
85.6700 0.0000
85.6800 2.0168
85.6900 1.0633
85.7000 0.0000
85.7100 0.0000
85.7200 0.1117
85.7300 3.0296
85.7400 0.0000
85.7500 0.3915
85.7600 0.5840
85.7700 0.9601
85.7800 1.2336
85.7900 0.9710
85.8000 0.0000
85.8100 1.9283
85.8200 0.0319
85.8300 0.0000
85.8400 0.9916
85.8500 0.3465
85.8600 1.7273
85.8700 0.0000
85.8800 0.0000
85.8900 0.0000
85.9000 0.0000
85.9100 0.0000
85.9200 1.1026
85.9300 0.0000
85.9400 0.1862
85.9500 1.0441
85.9600 2.6417
85.9700 0.0000
85.9800 0.0000
85.9900 1.9769
86.0000 0.0000
86.0100 1.1275
86.0200 0.0000
86.0300 1.0203
86.0400 0.9769
86.0500 0.9833
86.0600 0.0000
86.0700 0.0000
86.0800 1.0963
86.0900 1.0268
86.1000 0.7123
86.1100 0.2978
86.1200 0.9865
86.1300 1.0589
86.1400 1.0371
86.1500 1.0346
86.1600 0.2861
86.1700 1.1630
86.1800 1.1417
86.1900 0.5350
86.2000 0.0000
86.2100 0.0000
86.2200 0.0000
86.2300 0.0000
86.2400 0.0000
86.2500 0.0000
86.2600 0.9494
86.2700 0.0000
86.2800 0.0000
86.2900 0.9614
86.3000 0.9666
86.3100 0.0000
86.3200 0.0000
86.3300 1.0136
86.3400 0.0000
86.3500 0.0000
86.3600 0.0000
86.3700 1.9876
86.3800 0.0000
86.3900 0.0000
86.4000 0.0000
86.4100 0.9619
86.4200 0.0000
86.4300 0.0000
86.4400 0.0000
86.4500 0.0000
86.4600 1.1347
86.4700 0.8960
86.4800 0.0000
86.4900 0.0000
86.5000 0.0000
86.5100 0.0000
86.5200 0.0000
86.5300 1.1075
86.5400 0.0000
86.5500 0.0000
86.5600 1.0493
86.5700 0.9183
86.5800 0.0000
86.5900 0.9979
86.6000 0.0000
86.6100 0.0000
86.6200 1.0043
86.6300 1.6572
86.6400 0.2832
86.6500 0.0000
86.6600 1.0595
86.6700 0.0094
86.6800 0.9925
86.6900 0.0000
86.7000 0.0000
86.7100 0.0000
86.7200 0.0000
86.7300 0.0000
86.7400 0.0000
86.7500 0.8559
86.7600 0.1621
86.7700 0.0000
86.7800 0.0000
86.7900 0.0000
86.8000 0.0000
86.8100 0.0000
86.8200 0.0000
86.8300 0.0000
86.8400 0.0000
86.8500 0.0000
86.8600 0.0000
86.8700 0.0000
86.8800 0.9796
86.8900 1.0207
86.9000 0.0000
86.9100 0.3370
86.9200 0.6228
86.9300 0.0000
86.9400 0.0000
86.9500 0.7407
86.9600 0.2758
86.9700 0.0000
86.9800 0.0000
86.9900 0.0000
87.0000 0.9586
87.0100 0.0000
87.0200 0.0000
87.0300 0.0000
87.0400 0.5602
87.0500 0.4086
87.0600 0.0000
87.0700 0.0000
87.0800 0.0000
87.0900 0.0526
87.1000 0.9945
87.1100 0.0000
87.1200 0.9607
87.1300 0.0000
87.1400 0.0000
87.1500 0.5958
87.1600 0.3705
87.1700 0.3207
87.1800 0.0000
87.1900 1.6404
87.2000 1.1346
87.2100 1.7926
87.2200 1.8384
87.2300 2.1471
87.2400 0.9208
87.2500 1.0547
87.2600 0.6446
87.2700 1.3046
87.2800 3.5044
87.2900 2.3099
87.3000 0.1540
87.3100 0.9766
87.3200 0.0000
87.3300 0.3155
87.3400 0.6840
87.3500 0.0000
87.3600 0.0000
87.3700 0.0000
87.3800 0.0000
87.3900 0.0000
87.4000 0.0000
87.4100 1.0082
87.4200 0.1507
87.4300 1.3399
87.4400 0.8405
87.4500 0.0623
87.4600 0.0767
87.4700 1.5655
87.4800 0.3369
87.4900 0.9616
87.5000 0.0000
87.5100 3.3761
87.5200 0.2165
87.5300 1.7669
87.5400 0.3031
87.5500 0.7142
87.5600 1.0034
87.5700 1.0581
87.5800 0.0000
87.5900 1.0115
87.6000 0.0000
87.6100 1.0369
87.6200 0.0518
87.6300 1.0661
87.6400 0.8233
87.6500 0.9368
87.6600 0.0000
87.6700 0.0000
87.6800 0.0000
87.6900 0.0000
87.7000 0.0000
87.7100 0.0000
87.7200 0.0000
87.7300 1.0837
87.7400 0.0000
87.7500 0.0000
87.7600 1.0094
87.7700 0.0000
87.7800 0.9690
87.7900 2.0031
87.8000 0.9491
87.8100 0.9645
87.8200 0.9378
87.8300 0.0588
87.8400 1.2231
87.8500 0.0000
87.8600 2.3410
87.8700 0.8095
87.8800 2.4483
87.8900 0.0000
87.9000 0.0000
87.9100 0.0000
87.9200 0.0000
87.9300 0.0000
87.9400 2.2026
87.9500 1.9552
87.9600 0.0000
87.9700 0.0000
87.9800 0.4630
87.9900 0.5629
88.0000 0.0000
88.0100 0.7258
88.0200 0.2624
88.0300 0.0000
88.0400 0.0000
88.0500 0.0000
88.0600 0.0000
88.0700 0.0000
88.0800 0.0000
88.0900 0.4807
88.1000 0.5011
88.1100 2.8984
88.1200 1.7513
88.1300 0.2294
88.1400 0.0000
88.1500 0.0000
88.1600 0.0000
88.1700 0.9541
88.1800 0.0000
88.1900 0.0000
88.2000 0.5099
88.2100 2.4763
88.2200 0.0000
88.2300 0.0000
88.2400 0.0000
88.2500 0.0000
88.2600 0.0000
88.2700 0.0000
88.2800 0.0000
88.2900 0.0000
88.3000 0.4667
88.3100 0.5222
88.3200 1.0861
88.3300 2.0113
88.3400 0.0000
88.3500 0.0000
88.3600 0.0000
88.3700 0.0000
88.3800 0.0000
88.3900 0.0000
88.4000 0.9904
88.4100 0.0000
88.4200 0.0000
88.4300 0.9510
88.4400 0.0000
88.4500 0.0000
88.4600 0.0000
88.4700 0.0000
88.4800 0.0000
88.4900 0.0000
88.5000 0.3531
88.5100 0.6282
88.5200 2.0599
88.5300 0.0000
88.5400 1.0749
88.5500 0.0000
88.5600 0.9358
88.5700 1.0067
88.5800 0.0000
88.5900 0.0000
88.6000 0.9426
88.6100 0.0000
88.6200 0.4736
88.6300 0.4879
88.6400 1.0480
88.6500 0.7398
88.6600 0.2139
88.6700 2.9767
88.6800 1.0327
88.6900 0.0000
88.7000 0.0000
88.7100 0.3502
88.7200 1.1253
88.7300 0.5833
88.7400 0.0000
88.7500 0.0000
88.7600 0.0000
88.7700 1.9440
88.7800 0.0938
88.7900 0.0000
88.8000 0.0000
88.8100 0.0000
88.8200 0.0000
88.8300 0.4535
88.8400 0.5016
88.8500 0.0000
88.8600 0.0000
88.8700 0.8385
88.8800 0.1452
88.8900 2.0599
88.9000 0.9150
88.9100 0.2303
88.9200 1.7704
88.9300 0.0000
88.9400 1.4977
88.9500 0.4837
88.9600 0.0000
88.9700 1.9360
88.9800 0.0000
88.9900 0.1325
89.0000 0.0000
89.0100 0.0000
89.0200 0.0000
89.0300 1.2935
89.0400 0.6291
89.0500 0.0000
89.0600 0.0000
89.0700 0.7904
89.0800 0.2773
89.0900 0.0000
89.1000 0.0000
89.1100 0.0000
89.1200 0.2065
89.1300 1.0696
89.1400 1.7045
89.1500 0.0000
89.1600 1.0669
89.1700 1.6987
89.1800 0.3227
89.1900 0.9405
89.2000 0.1368
89.2100 0.0000
89.2200 0.0000
89.2300 0.0000
89.2400 0.3192
89.2500 1.0498
89.2600 1.1114
89.2700 2.1098
89.2800 0.3915
89.2900 0.8176
89.3000 1.2268
89.3100 0.0000
89.3200 0.9586
89.3300 0.9860
89.3400 0.0000
89.3500 1.3599
89.3600 1.0604
89.3700 0.4916
89.3800 0.0000
89.3900 1.0766
89.4000 0.0000
89.4100 0.0000
89.4200 0.9795
89.4300 0.0000
89.4400 0.0000
89.4500 0.0000
89.4600 0.0000
89.4700 1.0331
89.4800 0.9741
89.4900 0.0000
89.5000 0.0000
89.5100 3.1659
89.5200 0.0000
89.5300 0.9425
89.5400 0.0000
89.5500 0.2562
89.5600 0.6886
89.5700 1.1078
89.5800 1.0156
89.5900 0.8615
89.6000 0.0000
89.6100 0.9640
89.6200 0.9952
89.6300 0.0255
89.6400 1.9432
89.6500 2.0505
89.6600 0.0000
89.6700 0.4264
89.6800 1.6555
89.6900 1.0283
89.7000 0.6910
89.7100 1.3132
89.7200 1.9550
89.7300 0.0000
89.7400 0.9585
89.7500 0.0000
89.7600 0.0000
89.7700 0.3337
89.7800 1.6613
89.7900 0.0000
89.8000 0.0000
89.8100 0.0000
89.8200 1.6354
89.8300 0.3593
89.8400 0.0000
89.8500 0.0000
89.8600 2.0439
89.8700 0.2757
89.8800 2.0373
89.8900 0.6032
89.9000 0.9896
89.9100 0.0000
89.9200 0.0000
89.9300 0.0000
89.9400 0.0000
89.9500 0.0460
89.9600 2.8780
89.9700 1.4629
89.9800 1.4818
89.9900 1.9133
90.0000 0.0000
90.0100 1.0655
90.0200 0.6858
90.0300 2.2743
90.0400 1.0844
90.0500 0.1009
90.0600 0.1803
90.0700 1.9323
90.0800 0.9718
90.0900 1.0077
90.1000 0.4437
90.1100 0.5148
90.1200 0.0000
90.1300 1.1000
90.1400 1.8638
90.1500 0.1659
90.1600 1.9978
90.1700 0.0000
90.1800 0.2151
90.1900 1.7634
90.2000 0.0000
90.2100 0.0000
90.2200 2.6566
90.2300 1.1030
90.2400 1.0863
90.2500 0.2124
90.2600 0.0000
90.2700 0.0000
90.2800 0.1584
90.2900 0.8191
90.3000 0.9978
90.3100 0.4450
90.3200 0.5545
90.3300 0.6241
90.3400 0.3603
90.3500 0.0000
90.3600 0.0000
90.3700 0.0000
90.3800 0.0000
90.3900 0.0000
90.4000 0.0000
90.4100 0.0000
90.4200 0.0000
90.4300 0.0000
90.4400 0.0000
90.4500 0.0000
90.4600 0.0000
90.4700 0.9506
90.4800 0.0443
90.4900 0.0000
90.5000 0.0000
90.5100 0.0000
90.5200 0.0000
90.5300 0.0000
90.5400 0.0000
90.5500 0.0000
90.5600 0.9901
90.5700 1.8626
90.5800 0.0996
90.5900 0.0000
90.6000 0.0000
90.6100 2.1235
90.6200 0.0000
90.6300 0.9934
90.6400 0.5493
90.6500 0.4313
90.6600 0.0000
90.6700 1.8609
90.6800 0.1688
90.6900 0.0000
90.7000 0.1253
90.7100 2.1030
90.7200 3.1252
90.7300 0.7573
90.7400 2.4302
90.7500 0.4979
90.7600 0.0000
90.7700 0.0000
90.7800 0.0000
90.7900 0.0000
90.8000 0.9612
90.8100 0.0000
90.8200 0.0000
90.8300 0.0000
90.8400 1.9643
90.8500 0.0000
90.8600 0.0000
90.8700 0.0000
90.8800 0.0000
90.8900 0.8940
90.9000 0.0777
90.9100 0.0000
90.9200 0.9165
90.9300 0.9949
90.9400 1.0050
90.9500 0.0000
90.9600 0.0000
90.9700 0.6898
90.9800 1.3955
90.9900 0.0000
91.0000 0.0000
91.0100 0.0000
91.0200 0.0000
91.0300 0.2286
91.0400 2.7058
91.0500 0.0000
91.0600 0.0000
91.0700 0.9744
91.0800 0.0000
91.0900 0.0000
91.1000 0.8954
91.1100 0.0969
91.1200 0.0000
91.1300 1.2014
91.1400 0.8143
91.1500 0.0000
91.1600 0.0000
91.1700 0.5770
91.1800 1.4464
91.1900 0.0000
91.2000 0.0000
91.2100 0.9715
91.2200 1.0148
91.2300 0.9897
91.2400 0.0000
91.2500 0.0000
91.2600 1.0029
91.2700 0.0000
91.2800 0.0000
91.2900 0.0000
91.3000 0.7881
91.3100 0.2092
91.3200 0.0000
91.3300 0.0000
91.3400 0.3433
91.3500 1.7023
91.3600 1.0025
91.3700 0.0000
91.3800 0.0000
91.3900 0.0000
91.4000 0.0000
91.4100 0.0000
91.4200 0.8555
91.4300 0.0714
91.4400 0.0000
91.4500 0.0000
91.4600 0.3204
91.4700 0.7457
91.4800 0.0847
91.4900 0.0884
91.5000 0.8218
91.5100 0.3901
91.5200 0.2251
91.5300 0.9965
91.5400 2.2139
91.5500 0.0000
91.5600 0.0000
91.5700 1.8908
91.5800 0.9648
91.5900 0.5920
91.6000 1.2089
91.6100 0.4125
91.6200 1.0066
91.6300 0.9187
91.6400 0.0962
91.6500 0.9963
91.6600 0.0000
91.6700 0.0000
91.6800 0.0000
91.6900 0.5204
91.7000 0.5830
91.7100 0.9472
91.7200 0.7405
91.7300 0.2406
91.7400 1.0090
91.7500 1.0073
91.7600 0.1310
91.7700 0.8588
91.7800 0.0000
91.7900 1.4803
91.8000 1.5604
91.8100 0.5909
91.8200 0.3869
91.8300 0.7617
91.8400 0.1987
91.8500 0.0000
91.8600 0.0000
91.8700 0.3353
91.8800 1.6287
91.8900 0.0000
91.9000 0.0000
91.9100 0.0000
91.9200 0.0000
91.9300 1.0051
91.9400 0.0000
91.9500 0.0000
91.9600 0.0000
91.9700 0.0000
91.9800 0.2239
91.9900 1.1488
92.0000 1.6678
92.0100 0.0000
92.0200 0.0000
92.0300 0.0000
92.0400 2.0216
92.0500 0.9647
92.0600 0.0000
92.0700 0.0000
92.0800 0.0000
92.0900 0.0000
92.1000 1.2637
92.1100 0.6132
92.1200 0.5290
92.1300 1.0696
92.1400 1.0543
92.1500 0.2705
92.1600 0.0000
92.1700 0.0000
92.1800 0.0000
92.1900 0.0000
92.2000 0.0000
92.2100 0.0000
92.2200 0.9502
92.2300 2.5972
92.2400 0.4408
92.2500 0.7266
92.2600 0.2324
92.2700 0.0000
92.2800 0.0000
92.2900 0.0000
92.3000 0.0000
92.3100 0.9515
92.3200 0.0000
92.3300 1.0458
92.3400 0.0000
92.3500 0.0000
92.3600 0.0000
92.3700 0.0000
92.3800 0.0000
92.3900 2.9206
92.4000 0.9733
92.4100 0.2663
92.4200 0.7274
92.4300 0.4434
92.4400 1.5438
92.4500 0.0000
92.4600 0.0000
92.4700 1.0124
92.4800 0.0000
92.4900 0.0000
92.5000 0.0000
92.5100 0.0000
92.5200 0.0000
92.5300 0.4390
92.5400 1.1340
92.5500 2.2829
92.5600 1.2505
92.5700 0.7739
92.5800 0.2204
92.5900 0.0000
92.6000 0.9861
92.6100 0.0000
92.6200 0.0000
92.6300 0.3358
92.6400 0.6384
92.6500 0.0000
92.6600 0.6270
92.6700 0.3716
92.6800 0.8098
92.6900 0.1818
92.7000 0.0000
92.7100 0.9626
92.7200 0.0000
92.7300 0.0000
92.7400 0.0000
92.7500 0.0000
92.7600 1.0438
92.7700 0.0000
92.7800 0.0000
92.7900 0.0000
92.8000 0.0000
92.8100 0.0000
92.8200 0.1327
92.8300 0.8279
92.8400 0.3355
92.8500 1.6951
92.8600 0.0000
92.8700 0.9532
92.8800 0.7128
92.8900 0.2989
92.9000 0.0000
92.9100 1.0452
92.9200 0.0130
92.9300 0.0000
92.9400 0.0000
92.9500 0.0000
92.9600 0.9857
92.9700 0.0000
92.9800 1.2905
92.9900 0.6995
93.0000 0.0000
93.0100 0.9029
93.0200 1.0693
93.0300 1.1735
93.0400 2.6932
93.0500 0.3034
93.0600 0.6777
93.0700 0.0000
93.0800 0.0000
93.0900 0.0000
93.1000 0.8110
93.1100 1.1846
93.1200 0.1360
93.1300 2.0111
93.1400 0.0000
93.1500 0.0000
93.1600 1.3035
93.1700 0.6564
93.1800 1.9798
93.1900 0.0000
93.2000 0.0000
93.2100 0.0000
93.2200 0.0000
93.2300 0.0000
93.2400 0.0000
93.2500 0.2088
93.2600 1.1350
93.2700 0.6911
93.2800 0.0000
93.2900 0.0000
93.3000 0.9498
93.3100 0.0000
93.3200 2.7356
93.3300 1.2129
93.3400 0.0465
93.3500 0.9970
93.3600 0.2265
93.3700 0.7353
93.3800 0.4304
93.3900 0.5841
93.4000 0.0000
93.4100 0.0000
93.4200 0.0000
93.4300 0.8998
93.4400 0.1042
93.4500 0.0000
93.4600 0.0000
93.4700 0.0000
93.4800 0.0000
93.4900 0.0000
93.5000 0.5591
93.5100 1.7528
93.5200 1.7151
93.5300 0.0000
93.5400 1.0329
93.5500 2.1289
93.5600 0.0000
93.5700 0.0000
93.5800 0.0000
93.5900 0.9582
93.6000 0.5007
93.6100 1.0804
93.6200 0.3953
93.6300 0.0000
93.6400 0.0000
93.6500 0.0000
93.6600 1.9914
93.6700 0.9661
93.6800 0.0000
93.6900 0.0000
93.7000 1.3901
93.7100 1.5445
93.7200 0.0000
93.7300 0.0000
93.7400 0.0000
93.7500 0.9331
93.7600 0.8983
93.7700 0.0000
93.7800 0.1975
93.7900 1.8033
93.8000 0.3784
93.8100 0.5949
93.8200 1.0500
93.8300 0.0000
93.8400 0.0000
93.8500 1.8791
93.8600 1.0926
93.8700 0.0451
93.8800 0.0000
93.8900 0.0000
93.9000 0.6479
93.9100 2.2550
93.9200 0.0000
93.9300 0.0000
93.9400 1.4228
93.9500 1.5700
93.9600 0.0000
93.9700 0.0000
93.9800 1.0392
93.9900 0.9981
94.0000 0.0000
94.0100 0.0000
94.0200 0.0000
94.0300 1.5158
94.0400 0.7365
94.0500 0.0000
94.0600 1.6361
94.0700 0.9626
94.0800 0.0000
94.0900 0.0000
94.1000 0.0000
94.1100 0.9940
94.1200 0.0000
94.1300 0.0000
94.1400 0.0000
94.1500 2.0009
94.1600 0.0000
94.1700 0.0000
94.1800 0.9453
94.1900 0.0234
94.2000 0.1705
94.2100 1.1178
94.2200 0.7216
94.2300 0.9924
94.2400 0.0000
94.2500 0.0000
94.2600 0.0000
94.2700 0.8101
94.2800 1.1782
94.2900 0.0878
94.3000 0.0000
94.3100 1.0773
94.3200 0.2854
94.3300 0.6745
94.3400 0.0000
94.3500 0.0000
94.3600 0.6594
94.3700 0.3176
94.3800 0.8647
94.3900 0.1365
94.4000 0.0543
94.4100 0.9795
94.4200 0.0000
94.4300 1.3063
94.4400 0.7068
94.4500 0.5041
94.4600 0.4571
94.4700 0.7023
94.4800 0.2824
94.4900 0.8560
94.5000 0.0930
94.5100 0.0924
94.5200 0.9248
94.5300 0.0000
94.5400 0.3735
94.5500 0.6252
94.5600 0.0000
94.5700 0.0000
94.5800 2.0330
94.5900 0.0000
94.6000 0.0000
94.6100 0.0000
94.6200 0.0000
94.6300 0.0000
94.6400 0.0000
94.6500 1.9916
94.6600 0.0000
94.6700 0.0000
94.6800 0.9682
94.6900 0.0000
94.7000 0.0000
94.7100 0.9780
94.7200 1.0496
94.7300 0.0000
94.7400 0.0000
94.7500 2.3555
94.7600 0.6593
94.7700 2.0035
94.7800 0.0000
94.7900 1.0135
94.8000 0.8340
94.8100 1.2148
94.8200 0.0330
94.8300 2.0105
94.8400 1.8530
94.8500 0.0000
94.8600 0.0000
94.8700 0.0000
94.8800 0.0000
94.8900 0.0000
94.9000 0.0000
94.9100 0.0000
94.9200 0.0000
94.9300 0.0000
94.9400 0.0000
94.9500 0.0000
94.9600 0.0000
94.9700 0.0000
94.9800 0.0000
94.9900 1.1218
95.0000 0.0000
95.0100 0.0000
95.0200 0.0000
95.0300 0.0000
95.0400 0.0000
95.0500 0.0000
95.0600 0.2751
95.0700 0.6986
95.0800 0.0000
95.0900 0.9801
95.1000 1.0671
95.1100 0.0000
95.1200 0.0000
95.1300 0.9748
95.1400 0.0000
95.1500 0.0000
95.1600 1.9815
95.1700 0.0000
95.1800 0.0000
95.1900 0.9844
95.2000 0.0000
95.2100 0.0000
95.2200 0.0000
95.2300 0.0000
95.2400 0.0000
95.2500 0.0000
95.2600 0.0000
95.2700 0.0000
95.2800 0.0000
95.2900 1.0007
95.3000 1.1434
95.3100 1.5935
95.3200 0.3620
95.3300 0.8644
95.3400 0.1756
95.3500 0.0000
95.3600 0.0000
95.3700 0.0000
95.3800 0.0000
95.3900 0.0000
95.4000 0.4821
95.4100 0.4979
95.4200 0.0000
95.4300 0.0000
95.4400 0.0000
95.4500 0.0000
95.4600 2.0147
95.4700 1.0985
95.4800 0.8515
95.4900 0.0000
95.5000 0.0000
95.5100 0.9837
95.5200 0.9818
95.5300 0.9569
95.5400 1.0292
95.5500 0.0000
95.5600 0.0000
95.5700 0.9811
95.5800 0.0000
95.5900 0.0000
95.6000 0.0000
95.6100 0.0000
95.6200 0.0000
95.6300 0.0000
95.6400 0.0000
95.6500 0.0000
95.6600 1.9247
95.6700 0.0000
95.6800 0.1336
95.6900 0.8562
95.7000 0.0000
95.7100 0.0000
95.7200 0.9858
95.7300 0.0000
95.7400 0.6736
95.7500 0.2869
95.7600 0.0000
95.7700 0.0000
95.7800 1.9727
95.7900 0.0000
95.8000 0.2748
95.8100 1.1280
95.8200 1.5558
95.8300 1.0632
95.8400 0.7005
95.8500 0.3851
95.8600 1.0304
95.8700 0.0000
95.8800 0.0000
95.8900 0.0000
95.9000 0.0000
95.9100 0.0000
95.9200 0.0000
95.9300 0.0000
95.9400 0.0000
95.9500 0.0000
95.9600 0.0000
95.9700 0.0000
95.9800 1.9865
95.9900 0.1287
96.0000 0.9273
96.0100 0.0000
96.0200 0.9173
96.0300 0.8512
96.0400 1.6411
96.0500 1.4886
96.0600 0.0000
96.0700 0.0000
96.0800 0.0000
96.0900 0.9800
96.1000 2.1020
96.1100 0.0000
96.1200 0.0000
96.1300 0.9323
96.1400 0.0000
96.1500 0.0000
96.1600 0.6689
96.1700 0.3356
96.1800 1.0486
96.1900 0.0000
96.2000 0.0000
96.2100 1.0902
96.2200 0.2204
96.2300 2.0197
96.2400 0.6734
96.2500 0.0000
96.2600 0.0000
96.2700 1.3880
96.2800 0.5830
96.2900 1.7287
96.3000 0.2071
96.3100 0.0000
96.3200 1.0591
96.3300 1.9198
96.3400 0.0000
96.3500 0.0000
96.3600 0.0000
96.3700 0.9991
96.3800 3.2838
96.3900 0.7588
96.4000 0.0000
96.4100 0.0000
96.4200 0.0000
96.4300 0.0000
96.4400 0.6286
96.4500 2.3886
96.4600 0.9988
96.4700 0.9976
96.4800 0.6762
96.4900 0.3088
96.5000 0.0000
96.5100 0.0000
96.5200 2.0116
96.5300 0.0000
96.5400 0.2492
96.5500 0.7363
96.5600 0.9871
96.5700 0.0000
96.5800 1.0115
96.5900 0.0000
96.6000 0.8000
96.6100 0.1765
96.6200 0.0000
96.6300 0.0000
96.6400 1.0097
96.6500 0.2885
96.6600 0.7023
96.6700 0.4647
96.6800 1.5068
96.6900 1.9397
96.7000 0.0000
96.7100 0.0000
96.7200 0.0000
96.7300 0.9704
96.7400 0.1390
96.7500 2.8791
96.7600 0.0000
96.7700 0.0000
96.7800 0.0000
96.7900 0.9879
96.8000 0.9672
96.8100 0.0000
96.8200 0.0000
96.8300 1.9930
96.8400 0.0098
96.8500 0.0000
96.8600 0.2858
96.8700 1.7296
96.8800 0.0000
96.8900 0.0000
96.9000 0.0000
96.9100 0.0000
96.9200 1.0503
96.9300 0.0000
96.9400 0.9925
96.9500 0.0000
96.9600 0.0000
96.9700 0.0000
96.9800 1.9005
96.9900 1.9614
97.0000 2.6049
97.0100 0.3983
97.0200 0.0000
97.0300 0.0000
97.0400 0.0000
97.0500 2.0404
97.0600 1.2067
97.0700 1.6650
97.0800 0.3500
97.0900 0.6495
97.1000 1.0228
97.1100 0.0000
97.1200 0.0000
97.1300 0.0000
97.1400 0.0000
97.1500 0.0000
97.1600 0.9953
97.1700 0.0000
97.1800 1.0297
97.1900 0.0000
97.2000 0.0000
97.2100 0.0000
97.2200 0.6711
97.2300 2.2853
97.2400 0.9630
97.2500 1.0388
97.2600 0.9547
97.2700 0.0000
97.2800 0.9795
97.2900 0.3337
97.3000 0.6700
97.3100 0.4831
97.3200 1.4386
97.3300 0.0000
97.3400 0.7861
97.3500 0.1911
97.3600 0.9718
97.3700 0.0943
97.3800 1.8905
97.3900 0.0000
97.4000 2.0008
97.4100 0.0000
97.4200 0.0000
97.4300 1.6164
97.4400 1.3461
97.4500 0.0000
97.4600 0.9089
97.4700 1.0965
97.4800 1.9507
97.4900 0.0000
97.5000 0.0000
97.5100 0.0000
97.5200 0.0000
97.5300 0.0000
97.5400 0.0000
97.5500 0.7888
97.5600 0.2139
97.5700 0.0000
97.5800 0.9301
97.5900 0.0000
97.6000 0.9879
97.6100 0.0000
97.6200 0.0000
97.6300 0.0000
97.6400 0.6253
97.6500 1.1652
97.6600 0.2977
97.6700 0.9416
97.6800 0.0000
97.6900 1.1191
97.7000 3.1398
97.7100 0.7812
97.7200 1.9624
97.7300 0.0000
97.7400 0.0000
97.7500 1.3920
97.7600 0.6715
97.7700 2.0902
97.7800 0.0000
97.7900 0.0000
97.8000 0.0000
97.8100 2.1310
97.8200 0.7813
97.8300 0.0000
97.8400 0.0000
97.8500 2.0047
97.8600 0.0000
97.8700 0.7921
97.8800 0.1891
97.8900 0.0000
97.9000 0.0000
97.9100 0.1933
97.9200 0.8522
97.9300 0.0000
97.9400 0.0000
97.9500 0.9682
97.9600 0.0000
97.9700 0.7501
97.9800 0.2484
97.9900 0.9407
98.0000 1.0866
98.0100 1.0091
98.0200 0.0000
98.0300 0.0000
98.0400 0.9653
98.0500 0.4962
98.0600 0.4837
98.0700 0.0000
98.0800 0.7997
98.0900 2.9388
98.1000 0.2326
98.1100 0.0000
98.1200 0.0000
98.1300 0.0000
98.1400 0.3436
98.1500 2.1043
98.1600 1.6436
98.1700 0.8933
98.1800 0.0000
98.1900 0.0000
98.2000 1.0297
98.2100 0.9338
98.2200 0.0000
98.2300 0.0000
98.2400 0.9908
98.2500 0.0000
98.2600 0.5213
98.2700 0.5454
98.2800 1.0370
98.2900 0.0000
98.3000 1.0209
98.3100 0.0000
98.3200 0.9470
98.3300 0.0000
98.3400 0.2492
98.3500 0.7726
98.3600 0.0000
98.3700 2.5486
98.3800 0.4703
98.3900 0.0000
98.4000 0.0000
98.4100 0.0000
98.4200 0.0000
98.4300 0.0000
98.4400 0.0000
98.4500 0.0000
98.4600 0.0000
98.4700 0.0000
98.4800 0.0000
98.4900 1.2797
98.5000 1.4332
98.5100 0.2521
98.5200 0.0000
98.5300 1.9887
98.5400 1.2753
98.5500 1.7280
98.5600 0.0000
98.5700 0.0000
98.5800 0.0000
98.5900 0.6288
98.6000 2.0354
98.6100 1.0446
98.6200 1.0478
98.6300 2.1260
98.6400 0.1111
98.6500 4.2535
98.6600 0.8723
98.6700 1.3472
98.6800 2.4904
98.6900 5.1596
98.7000 2.6719
98.7100 3.5096
98.7200 2.5073
98.7300 2.3450
98.7400 2.0389
98.7500 0.1168
98.7600 1.1082
98.7700 3.1714
98.7800 2.6564
98.7900 0.0000
98.8000 0.0000
98.8100 0.9999
98.8200 0.9216
98.8300 1.3180
98.8400 0.0000
98.8500 0.0000
98.8600 0.0000
98.8700 0.0000
98.8800 1.3626
98.8900 1.6358
98.9000 1.9850
98.9100 0.0000
98.9200 0.0000
98.9300 0.9480
98.9400 2.0342
98.9500 0.0000
98.9600 0.0956
98.9700 2.8718
98.9800 0.2946
98.9900 0.7386
99.0000 0.9269
99.0100 1.5846
99.0200 0.4221
99.0300 0.0000
99.0400 1.0014
99.0500 0.9353
99.0600 0.0535
99.0700 0.9792
99.0800 0.2330
99.0900 0.7843
99.1000 1.0238
99.1100 0.0000
99.1200 1.0220
99.1300 2.0621
99.1400 0.0000
99.1500 0.0000
99.1600 0.0000
99.1700 0.1408
99.1800 0.1948
99.1900 0.9315
99.2000 0.0000
99.2100 0.0000
99.2200 0.0000
99.2300 1.0276
99.2400 0.0000
99.2500 0.0000
99.2600 0.0000
99.2700 1.1113
99.2800 0.0000
99.2900 0.0000
99.3000 0.0000
99.3100 0.0000
99.3200 0.0000
99.3300 0.0000
99.3400 0.0000
99.3500 0.0000
99.3600 0.8491
99.3700 0.2861
99.3800 0.0056
99.3900 1.1700
99.4000 0.0000
99.4100 1.1487
99.4200 0.0000
99.4300 0.5456
99.4400 0.4783
99.4500 1.0107
99.4600 0.0000
99.4700 0.0000
99.4800 0.0000
99.4900 0.1006
99.5000 0.9136
99.5100 0.2855
99.5200 0.7057
99.5300 0.0000
99.5400 0.0000
99.5500 0.0000
99.5600 0.0000
99.5700 0.0000
99.5800 0.0000
99.5900 0.0000
99.6000 0.0000
99.6100 0.0000
99.6200 1.9042
99.6300 0.0000
99.6400 0.5153
99.6500 0.4850
99.6600 0.9784
99.6700 0.0000
99.6800 0.8691
99.6900 0.1045
99.7000 1.0131
99.7100 1.0088
99.7200 0.0000
99.7300 0.0000
99.7400 0.4457
99.7500 0.5252
99.7600 0.0000
99.7700 1.0716
99.7800 0.9949
99.7900 0.0000
99.8000 0.0000
99.8100 1.0818
99.8200 0.9646
99.8300 2.1159
99.8400 0.0000
99.8500 0.0000
99.8600 0.0000
99.8700 0.0000
99.8800 0.7617
99.8900 0.2141
99.9000 1.9113
99.9100 0.0604
99.9200 0.0000
99.9300 2.0552
99.9400 0.0000
99.9500 0.0000
99.9600 0.0000
99.9700 0.9793
99.9800 0.0000
99.9900 1.5605
100.0000 0.3450
100.0100 0.9937
100.0200 0.6705
100.0300 1.0513
100.0400 0.2715
100.0500 0.0000
100.0600 0.0000
100.0700 0.0000
100.0800 0.6984
100.0900 1.0996
100.1000 1.1881
100.1100 0.0000
100.1200 0.0452
100.1300 0.9363
100.1400 0.0000
100.1500 0.0000
100.1600 0.0000
100.1700 1.0202
100.1800 0.0000
100.1900 0.0000
100.2000 0.0000
100.2100 0.0000
100.2200 0.0000
100.2300 0.0000
100.2400 0.0000
100.2500 0.0000
100.2600 0.0000
100.2700 0.9641
100.2800 0.0000
100.2900 0.0000
100.3000 0.0000
100.3100 0.0000
100.3200 1.9687
100.3300 1.0462
100.3400 4.2070
100.3500 0.0000
100.3600 0.0000
100.3700 0.0000
100.3800 4.8447
100.3900 0.0000
100.4000 0.9660
100.4100 1.6137
100.4200 1.4328
100.4300 1.9121
100.4400 0.9974
100.4500 0.0000
100.4600 0.9802
100.4700 0.0000
100.4800 0.4475
100.4900 0.5598
100.5000 0.0000
100.5100 2.4739
100.5200 2.3628
100.5300 0.1850
100.5400 0.0000
100.5500 0.0000
100.5600 0.0000
100.5700 0.0000
100.5800 1.0853
100.5900 0.0000
100.6000 0.9800
100.6100 0.0000
100.6200 1.0282
100.6300 0.0000
100.6400 0.0000
100.6500 0.0000
100.6600 2.0706
100.6700 0.0000
100.6800 1.0673
100.6900 0.4205
100.7000 0.5653
100.7100 1.2598
100.7200 1.5129
100.7300 0.2967
100.7400 0.0000
100.7500 0.0000
100.7600 1.0252
100.7700 0.8826
100.7800 0.0000
100.7900 0.0000
100.8000 0.0000
100.8100 0.0000
100.8200 0.0000
100.8300 0.0000
100.8400 0.0000
100.8500 0.9678
100.8600 0.0340
100.8700 1.0544
100.8800 0.0000
100.8900 0.3151
100.9000 0.6872
100.9100 0.5156
100.9200 0.5090
100.9300 0.9785
100.9400 1.6085
100.9500 0.4369
100.9600 0.9773
100.9700 0.0658
100.9800 0.8807
100.9900 0.0000
101.0000 1.0053
101.0100 1.0087
101.0200 0.0000
101.0300 0.6457
101.0400 1.4297
101.0500 1.9327
101.0600 0.0000
101.0700 0.0000
101.0800 0.0000
101.0900 0.0000
101.1000 0.0000
101.1100 0.0000
101.1200 0.0000
101.1300 0.0000
101.1400 0.9606
101.1500 0.0000
101.1600 0.9817
101.1700 1.0111
101.1800 0.9658
101.1900 0.0000
101.2000 0.0000
101.2100 0.0000
101.2200 0.0000
101.2300 0.9884
101.2400 0.7383
101.2500 0.4559
101.2600 1.1415
101.2700 0.9401
101.2800 0.0992
101.2900 0.0000
101.3000 0.0000
101.3100 0.2749
101.3200 1.7682
101.3300 0.0000
101.3400 0.0000
101.3500 0.0000
101.3600 0.0000
101.3700 0.0000
101.3800 1.0924
101.3900 0.0364
101.4000 1.0303
101.4100 1.2070
101.4200 0.8170
101.4300 2.7873
101.4400 1.1964
101.4500 1.6099
101.4600 0.3899
101.4700 0.0000
101.4800 0.9760
101.4900 0.0000
101.5000 0.0728
101.5100 0.9315
101.5200 0.0000
101.5300 0.0000
101.5400 1.0460
101.5500 0.0000
101.5600 0.0000
101.5700 0.0000
101.5800 0.0000
101.5900 1.1075
101.6000 0.0000
101.6100 0.0000
101.6200 0.1944
101.6300 0.7529
101.6400 0.3915
101.6500 0.6022
101.6600 0.5691
101.6700 0.4074
101.6800 0.0000
101.6900 0.9748
101.7000 0.0000
101.7100 0.9682
101.7200 0.0000
101.7300 0.0000
101.7400 0.0000
101.7500 0.0000
101.7600 0.0000
101.7700 0.6058
101.7800 1.3776
101.7900 0.0000
101.8000 0.0000
101.8100 0.0000
101.8200 1.0263
101.8300 0.0000
101.8400 1.0113
101.8500 1.3502
101.8600 1.0793
101.8700 1.0797
101.8800 0.4137
101.8900 0.0000
101.9000 0.0000
101.9100 0.0000
101.9200 0.0394
101.9300 1.1515
101.9400 0.8411
101.9500 0.0000
101.9600 1.4438
101.9700 0.5731
101.9800 0.0000
101.9900 0.0000
102.0000 0.8950
102.0100 0.2348
102.0200 0.9871
102.0300 0.0736
102.0400 0.9026
102.0500 0.0000
102.0600 0.9822
102.0700 0.0000
102.0800 0.0000
102.0900 0.6273
102.1000 0.3502
102.1100 2.0142
102.1200 0.0000
102.1300 1.0159
102.1400 0.1093
102.1500 1.0538
102.1600 0.7686
102.1700 0.9840
102.1800 0.0000
102.1900 0.9334
102.2000 1.0236
102.2100 0.9541
102.2200 0.0000
102.2300 0.0000
102.2400 0.0562
102.2500 0.9183
102.2600 1.1567
102.2700 0.7344
102.2800 0.0000
102.2900 0.0000
102.3000 1.0420
102.3100 0.0000
102.3200 0.0000
102.3300 0.0000
102.3400 0.0000
102.3500 1.0118
102.3600 0.0000
102.3700 1.2885
102.3800 1.7401
102.3900 0.4832
102.4000 2.0477
102.4100 2.5216
102.4200 2.8406
102.4300 0.2412
102.4400 0.0000
102.4500 1.0545
102.4600 0.0000
102.4700 0.0000
102.4800 0.9577
102.4900 0.0000
102.5000 0.0000
102.5100 0.9416
102.5200 0.9778
102.5300 1.5729
102.5400 0.4054
102.5500 0.0000
102.5600 3.8395
102.5700 0.1696
102.5800 0.8128
102.5900 0.0000
102.6000 0.0000
102.6100 1.0320
102.6200 0.6839
102.6300 1.4098
102.6400 0.9902
102.6500 0.9182
102.6600 1.0381
102.6700 0.0000
102.6800 0.0000
102.6900 0.0000
102.7000 2.9847
102.7100 0.9800
102.7200 0.0000
102.7300 0.7130
102.7400 2.2788
102.7500 0.0000
102.7600 0.9967
102.7700 0.0587
102.7800 1.0648
102.7900 1.8550
102.8000 0.3470
102.8100 1.6860
102.8200 0.5215
102.8300 0.4578
102.8400 0.0000
102.8500 0.8183
102.8600 2.0706
102.8700 0.1863
102.8800 0.0000
102.8900 0.0000
102.9000 0.9942
102.9100 0.0000
102.9200 0.0000
102.9300 0.0000
102.9400 1.3256
102.9500 0.0000
102.9600 0.6210
102.9700 0.0000
102.9800 0.0000
102.9900 0.0000
103.0000 0.0000
103.0100 0.0000
103.0200 0.9967
103.0300 0.0000
103.0400 0.9587
103.0500 0.6207
103.0600 0.8600
103.0700 0.5281
103.0800 1.9385
103.0900 0.0125
103.1000 0.0000
103.1100 0.0000
103.1200 0.0000
103.1300 0.4480
103.1400 0.5286
103.1500 0.0000
103.1600 0.0000
103.1700 0.0000
103.1800 0.0000
103.1900 0.0000
103.2000 0.0000
103.2100 0.0000
103.2200 0.0000
103.2300 0.0000
103.2400 0.0000
103.2500 0.0000
103.2600 0.0000
103.2700 0.0000
103.2800 0.0000
103.2900 0.0000
103.3000 0.0680
103.3100 1.0032
103.3200 0.0000
103.3300 0.0000
103.3400 0.4325
103.3500 0.5481
103.3600 0.0000
103.3700 1.4089
103.3800 0.5365
103.3900 0.0000
103.4000 0.0000
103.4100 0.2008
103.4200 1.7715
103.4300 0.2918
103.4400 0.7124
103.4500 0.0000
103.4600 0.0000
103.4700 1.3545
103.4800 1.6652
103.4900 0.8592
103.5000 1.1496
103.5100 1.9525
103.5200 0.0000
103.5300 0.2285
103.5400 0.7458
103.5500 0.9866
103.5600 1.9756
103.5700 0.9802
103.5800 0.9394
103.5900 1.0292
103.6000 0.0000
103.6100 0.0000
103.6200 0.0000
103.6300 0.0000
103.6400 0.2683
103.6500 0.7149
103.6600 0.0000
103.6700 0.0000
103.6800 0.0000
103.6900 0.0000
103.7000 2.0498
103.7100 0.0000
103.7200 0.0000
103.7300 0.0000
103.7400 0.0000
103.7500 0.0000
103.7600 0.0000
103.7700 0.0000
103.7800 0.0000
103.7900 0.6716
103.8000 0.3035
103.8100 0.0000
103.8200 0.0000
103.8300 1.0036
103.8400 0.0000
103.8500 0.0000
103.8600 0.3555
103.8700 1.6659
103.8800 0.5502
103.8900 1.4497
103.9000 1.6627
103.9100 1.1093
103.9200 1.9613
103.9300 0.1631
103.9400 2.0409
103.9500 1.0878
103.9600 0.7715
103.9700 0.0000
103.9800 0.0000
103.9900 0.0000
104.0000 0.0000
104.0100 0.7664
104.0200 0.2348
104.0300 0.0000
104.0400 0.0000
104.0500 0.9647
104.0600 0.0000
104.0700 0.0000
104.0800 0.4197
104.0900 0.5651
104.1000 0.0000
104.1100 0.0000
104.1200 1.9339
104.1300 0.8803
104.1400 1.1113
104.1500 1.1824
104.1600 1.9108
104.1700 0.2904
104.1800 2.6924
104.1900 0.0000
104.2000 0.5761
104.2100 0.4546
104.2200 0.7148
104.2300 1.0733
104.2400 1.2144
104.2500 1.9208
104.2600 0.1238
104.2700 0.8641
104.2800 0.9852
104.2900 0.6461
104.3000 0.0000
104.3100 1.2748
104.3200 0.0000
104.3300 0.7872
104.3400 0.2142
104.3500 0.0000
104.3600 0.9846
104.3700 0.0000
104.3800 0.2577
104.3900 0.7409
104.4000 0.0000
104.4100 0.5342
104.4200 1.0923
104.4300 1.1007
104.4400 1.2890
104.4500 0.9428
104.4600 2.0800
104.4700 0.9402
104.4800 0.9781
104.4900 0.0000
104.5000 0.3745
104.5100 0.5838
104.5200 0.0000
104.5300 0.9631
104.5400 0.0000
104.5500 0.0000
104.5600 0.0000
104.5700 0.0000
104.5800 0.1551
104.5900 0.9076
104.6000 0.0000
104.6100 0.0000
104.6200 1.4685
104.6300 0.4475
104.6400 0.0000
104.6500 0.9411
104.6600 1.3026
104.6700 1.1537
104.6800 1.0118
104.6900 0.0000
104.7000 0.0000
104.7100 0.0000
104.7200 1.0066
104.7300 0.0000
104.7400 0.0000
104.7500 0.7380
104.7600 0.2452
104.7700 0.0000
104.7800 0.0000
104.7900 0.0000
104.8000 2.0554
104.8100 0.0000
104.8200 0.0000
104.8300 0.9617
104.8400 0.0000
104.8500 0.0000
104.8600 0.0000
104.8700 0.0000
104.8800 0.9665
104.8900 0.0220
104.9000 0.0000
104.9100 0.0000
104.9200 1.3637
104.9300 1.6539
104.9400 0.0000
104.9500 0.0000
104.9600 0.0000
104.9700 0.0000
104.9800 0.0000
104.9900 0.9563
105.0000 0.0000
105.0100 0.0000
105.0200 0.0000
105.0300 0.0000
105.0400 0.0000
105.0500 0.0000
105.0600 0.6504
105.0700 1.0583
105.0800 0.2218
105.0900 0.0000
105.1000 0.0000
105.1100 0.0000
105.1200 0.0000
105.1300 0.0000
105.1400 0.0000
105.1500 0.0000
105.1600 1.0115
105.1700 0.0000
105.1800 0.8103
105.1900 1.9946
105.2000 0.1916
105.2100 2.0627
105.2200 0.0000
105.2300 0.0000
105.2400 0.0000
105.2500 0.0000
105.2600 1.0229
105.2700 1.3117
105.2800 0.6783
105.2900 0.8491
105.3000 0.1523
105.3100 2.0363
105.3200 1.1907
105.3300 2.6889
105.3400 0.3270
105.3500 2.7719
105.3600 0.9814
105.3700 0.0000
105.3800 0.0000
105.3900 0.8730
105.4000 0.2294
105.4100 0.9645
105.4200 0.0780
105.4300 0.9610
105.4400 0.0000
105.4500 1.0010
105.4600 0.0000
105.4700 0.0000
105.4800 0.6309
105.4900 1.1446
105.5000 0.2843
105.5100 0.0000
105.5200 0.0176
105.5300 0.9107
105.5400 0.0000
105.5500 1.6019
105.5600 1.3670
105.5700 0.0000
105.5800 0.0000
105.5900 0.0000
105.6000 0.0000
105.6100 0.0000
105.6200 0.1227
105.6300 0.0563
105.6400 0.9250
105.6500 0.9540
105.6600 0.0000
105.6700 0.0733
105.6800 0.0953
105.6900 0.7209
105.7000 0.4349
105.7100 0.0000
105.7200 0.0000
105.7300 0.0013
105.7400 1.0987
105.7500 0.9423
105.7600 0.0000
105.7700 0.0000
105.7800 0.0000
105.7900 1.0948
105.8000 1.4803
105.8100 2.7543
105.8200 0.4779
105.8300 0.9565
105.8400 0.0957
105.8500 0.9752
105.8600 0.0000
105.8700 0.0000
105.8800 0.9786
105.8900 1.2202
105.9000 0.0000
105.9100 0.0000
105.9200 0.0000
105.9300 0.0000
105.9400 0.0000
105.9500 0.0000
105.9600 1.1642
105.9700 0.7836
105.9800 0.0000
105.9900 2.0360
106.0000 0.0000
106.0100 0.0000
106.0200 1.7009
106.0300 0.2574
106.0400 0.9945
106.0500 0.0000
106.0600 0.0000
106.0700 1.9553
106.0800 0.0000
106.0900 0.0000
106.1000 0.0000
106.1100 0.6611
106.1200 0.4627
106.1300 0.7341
106.1400 0.2106
106.1500 0.0000
106.1600 0.0000
106.1700 0.0000
106.1800 0.2428
106.1900 1.0778
106.2000 0.6606
106.2100 0.0000
106.2200 0.0000
106.2300 0.7600
106.2400 0.2941
106.2500 0.0000
106.2600 0.0000
106.2700 0.0000
106.2800 0.0000
106.2900 0.2876
106.3000 0.7133
106.3100 0.4736
106.3200 1.5069
106.3300 0.6654
106.3400 1.0757
106.3500 0.2347
106.3600 0.0000
106.3700 0.0418
106.3800 0.9421
106.3900 1.0798
106.4000 0.0000
106.4100 0.4150
106.4200 0.5729
106.4300 0.6070
106.4400 0.3899
106.4500 1.7551
106.4600 0.1973
106.4700 1.0732
106.4800 0.0000
106.4900 0.1787
106.5000 0.8411
106.5100 0.0000
106.5200 0.0000
106.5300 0.0000
106.5400 0.0000
106.5500 0.9926
106.5600 0.0000
106.5700 0.0000
106.5800 1.0203
106.5900 0.9869
106.6000 0.0000
106.6100 0.0000
106.6200 0.0000
106.6300 1.0158
106.6400 0.0000
106.6500 0.0000
106.6600 0.0000
106.6700 0.0000
106.6800 0.0000
106.6900 0.0000
106.7000 0.0000
106.7100 0.0000
106.7200 0.0000
106.7300 1.0091
106.7400 1.1396
106.7500 0.1453
106.7600 0.4526
106.7700 0.1726
106.7800 0.0000
106.7900 0.0000
106.8000 0.0000
106.8100 0.0000
106.8200 0.0000
106.8300 0.0000
106.8400 0.0000
106.8500 0.5508
106.8600 0.4097
106.8700 0.0000
106.8800 0.0000
106.8900 0.9674
106.9000 0.0000
106.9100 0.0000
106.9200 0.0000
106.9300 0.0000
106.9400 0.0000
106.9500 0.4931
106.9600 1.0202
106.9700 1.3661
106.9800 0.0000
106.9900 0.0000
107.0000 0.0000
107.0100 0.0000
107.0200 0.0000
107.0300 0.0000
107.0400 0.9224
107.0500 0.0000
107.0600 0.0000
107.0700 0.9203
107.0800 0.0000
107.0900 0.9775
107.1000 0.9662
107.1100 0.0000
107.1200 0.0000
107.1300 0.0000
107.1400 0.0000
107.1500 0.0000
107.1600 0.0000
107.1700 2.9702
107.1800 0.0000
107.1900 0.7628
107.2000 1.2385
107.2100 0.0000
107.2200 0.0000
107.2300 1.0151
107.2400 0.0000
107.2500 0.3668
107.2600 1.8816
107.2700 0.0000
107.2800 0.0000
107.2900 0.0000
107.3000 0.0000
107.3100 3.1099
107.3200 0.0100
107.3300 0.9956
107.3400 0.3862
107.3500 1.5569
107.3600 0.0000
107.3700 0.9885
107.3800 0.9686
107.3900 0.7532
107.4000 1.3384
107.4100 0.0000
107.4200 0.9999
107.4300 0.0000
107.4400 2.0540
107.4500 0.0000
107.4600 0.3445
107.4700 1.0918
107.4800 0.5353
107.4900 0.0000
107.5000 0.0000
107.5100 0.0000
107.5200 0.0000
107.5300 0.9750
107.5400 1.0219
107.5500 0.0000
107.5600 0.0000
107.5700 0.3704
107.5800 2.8038
107.5900 1.0440
107.6000 2.0265
107.6100 2.0564
107.6200 0.9243
107.6300 0.1737
107.6400 1.0372
107.6500 0.0000
107.6600 3.8808
107.6700 0.9717
107.6800 1.3998
107.6900 0.5859
107.7000 0.0000
107.7100 0.0000
107.7200 0.7829
107.7300 1.2026
107.7400 0.0000
107.7500 0.0000
107.7600 0.0000
107.7700 0.0000
107.7800 0.0000
107.7900 0.0000
107.8000 0.0000
107.8100 0.0000
107.8200 0.0000
107.8300 0.0000
107.8400 0.0000
107.8500 0.0136
107.8600 3.1898
107.8700 0.9094
107.8800 0.0000
107.8900 0.0000
107.9000 0.0000
107.9100 0.0000
107.9200 0.0000
107.9300 1.0546
107.9400 0.0000
107.9500 0.0000
107.9600 0.0000
107.9700 1.0904
107.9800 0.0000
107.9900 1.2898
108.0000 1.7175
108.0100 0.0000
108.0200 0.0000
108.0300 1.6919
108.0400 0.2815
108.0500 0.0000
108.0600 0.0000
108.0700 1.0357
108.0800 0.0000
108.0900 0.2666
108.1000 1.6653
108.1100 0.0000
108.1200 0.0000
108.1300 0.0000
108.1400 0.9989
108.1500 0.0000
108.1600 0.9293
108.1700 0.0603
108.1800 0.0000
108.1900 0.0000
108.2000 0.9705
108.2100 0.9900
108.2200 0.0000
108.2300 1.6203
108.2400 0.4052
108.2500 0.9747
108.2600 0.0000
108.2700 0.0000
108.2800 0.0000
108.2900 0.1692
108.3000 1.1128
108.3100 0.7496
108.3200 0.0000
108.3300 0.0000
108.3400 0.0000
108.3500 1.0082
108.3600 0.0000
108.3700 0.8156
108.3800 0.0849
108.3900 0.9576
108.4000 0.0000
108.4100 0.0000
108.4200 0.0000
108.4300 0.0000
108.4400 0.6047
108.4500 0.4340
108.4600 0.0000
108.4700 0.0000
108.4800 0.0000
108.4900 0.9722
108.5000 0.2992
108.5100 2.6809
108.5200 1.3162
108.5300 2.0792
108.5400 1.6284
108.5500 0.0000
108.5600 1.0383
108.5700 0.9831
108.5800 0.0000
108.5900 0.0000
108.6000 0.9955
108.6100 0.0000
108.6200 0.0000
108.6300 2.1630
108.6400 2.4087
108.6500 1.0921
108.6600 1.4194
108.6700 0.0000
108.6800 0.8315
108.6900 0.1495
108.7000 0.0000
108.7100 1.0107
108.7200 1.4176
108.7300 1.5651
108.7400 0.9441
108.7500 0.0000
108.7600 0.0000
108.7700 0.0000
108.7800 0.0000
108.7900 0.0000
108.8000 1.9006
108.8100 1.0335
108.8200 0.0000
108.8300 0.0000
108.8400 0.0000
108.8500 0.0000
108.8600 0.0000
108.8700 0.0000
108.8800 0.0000
108.8900 0.0000
108.9000 0.0000
108.9100 1.0206
108.9200 1.9778
108.9300 1.0063
108.9400 0.0000
108.9500 0.4526
108.9600 0.6896
108.9700 1.5566
108.9800 0.4101
108.9900 0.0000
109.0000 0.0000
109.0100 0.0000
109.0200 0.0000
109.0300 0.0000
109.0400 0.0000
109.0500 0.9797
109.0600 0.4287
109.0700 0.5578
109.0800 0.0000
109.0900 0.0000
109.1000 1.5991
109.1100 0.3698
109.1200 0.0000
109.1300 0.0926
109.1400 0.8788
109.1500 0.2977
109.1600 0.7500
109.1700 0.0000
109.1800 0.0000
109.1900 0.7028
109.2000 0.3592
109.2100 0.0000
109.2200 0.9192
109.2300 1.0410
109.2400 1.0316
109.2500 0.0000
109.2600 0.0000
109.2700 1.4534
109.2800 3.0628
109.2900 0.4960
109.3000 0.0000
109.3100 0.0000
109.3200 0.9792
109.3300 0.0000
109.3400 0.0000
109.3500 1.1823
109.3600 1.7493
109.3700 0.0000
109.3800 0.4455
109.3900 2.1043
109.4000 1.1524
109.4100 2.1040
109.4200 3.0331
109.4300 2.1869
109.4400 0.1448
109.4500 1.0995
109.4600 0.8303
109.4700 0.0000
109.4800 0.0000
109.4900 0.9531
109.5000 0.0000
109.5100 0.9814
109.5200 0.9372
109.5300 0.0000
109.5400 0.0000
109.5500 1.0610
109.5600 0.9613
109.5700 0.0000
109.5800 0.3343
109.5900 0.6401
109.6000 0.5154
109.6100 0.4536
109.6200 0.6898
109.6300 0.2674
109.6400 0.8938
109.6500 2.0531
109.6600 0.9647
109.6700 0.0000
109.6800 0.0000
109.6900 1.0470
109.7000 1.5965
109.7100 0.5173
109.7200 0.6671
109.7300 2.4515
109.7400 0.0000
109.7500 0.0000
109.7600 0.0465
109.7700 1.0541
109.7800 0.0000
109.7900 0.3360
109.8000 0.6967
109.8100 0.9962
109.8200 0.9708
109.8300 0.0000
109.8400 0.0000
109.8500 0.0000
109.8600 0.0000
109.8700 0.0000
109.8800 0.9890
109.8900 0.2782
109.9000 0.7548
109.9100 0.0000
109.9200 0.0000
109.9300 0.0000
109.9400 1.0459
109.9500 0.0000
109.9600 0.0000
109.9700 0.0000
109.9800 0.2388
109.9900 1.7697
110.0000 0.0000
110.0100 0.0000
110.0200 0.0000
110.0300 1.9793
110.0400 0.0000
110.0500 1.5596
110.0600 0.4408
110.0700 0.0000
110.0800 0.0641
110.0900 0.9563
110.1000 1.0080
110.1100 0.0000
110.1200 0.0000
110.1300 0.0000
110.1400 0.0000
110.1500 0.0000
110.1600 1.9069
110.1700 1.1049
110.1800 0.0066
110.1900 0.9708
110.2000 0.0000
110.2100 0.0000
110.2200 0.0000
110.2300 0.0000
110.2400 1.0022
110.2500 0.0000
110.2600 0.0000
110.2700 0.0000
110.2800 0.0000
110.2900 1.0395
110.3000 0.1343
110.3100 1.0578
110.3200 1.7270
110.3300 0.0000
110.3400 0.9708
110.3500 0.0000
110.3600 0.0000
110.3700 0.0000
110.3800 0.0000
110.3900 0.0000
110.4000 0.0000
110.4100 0.0000
110.4200 0.0000
110.4300 0.0000
110.4400 0.0000
110.4500 0.0000
110.4600 0.0000
110.4700 1.0098
110.4800 1.8478
110.4900 0.1532
110.5000 2.0193
110.5100 0.9317
110.5200 0.0000
110.5300 0.0000
110.5400 1.1208
110.5500 0.0000
110.5600 0.0000
110.5700 0.0000
110.5800 0.0000
110.5900 0.0000
110.6000 0.0000
110.6100 0.0618
110.6200 1.0371
110.6300 0.8335
110.6400 0.9571
110.6500 0.0000
110.6600 0.9764
110.6700 0.0000
110.6800 1.0762
110.6900 0.0000
110.7000 1.5498
110.7100 3.0574
110.7200 3.3992
110.7300 0.8861
110.7400 4.5441
110.7500 1.7740
110.7600 3.0400
110.7700 0.5054
110.7800 3.0693
110.7900 0.0000
110.8000 1.0001
110.8100 0.0000
110.8200 0.9990
110.8300 0.0000
110.8400 1.9317
110.8500 0.0000
110.8600 0.0000
110.8700 0.0000
110.8800 0.5750
110.8900 1.0601
110.9000 0.2873
110.9100 0.0000
110.9200 0.0000
110.9300 0.9917
110.9400 0.0000
110.9500 0.0000
110.9600 0.0000
110.9700 0.9543
110.9800 1.1832
110.9900 0.6491
111.0000 1.3011
111.0100 0.0000
111.0200 1.0472
111.0300 0.9675
111.0400 0.0000
111.0500 2.0312
111.0600 0.9926
111.0700 0.0000
111.0800 0.0000
111.0900 0.0000
111.1000 0.0000
111.1100 0.0000
111.1200 0.8757
111.1300 0.1196
111.1400 0.0000
111.1500 0.0000
111.1600 0.0000
111.1700 1.3801
111.1800 0.6288
111.1900 0.0000
111.2000 0.6046
111.2100 1.1116
111.2200 1.2522
111.2300 1.1417
111.2400 0.0000
111.2500 0.0000
111.2600 0.0000
111.2700 0.0000
111.2800 0.4038
111.2900 0.6312
111.3000 0.0000
111.3100 0.0000
111.3200 1.7589
111.3300 0.2351
111.3400 0.9338
111.3500 0.0425
111.3600 0.0000
111.3700 0.0000
111.3800 0.3315
111.3900 0.6606
111.4000 0.0000
111.4100 0.0000
111.4200 0.0000
111.4300 1.8035
111.4400 0.1919
111.4500 0.0000
111.4600 0.9693
111.4700 0.0000
111.4800 0.0000
111.4900 0.0000
111.5000 0.9823
111.5100 0.0000
111.5200 0.6791
111.5300 0.3567
111.5400 1.0114
111.5500 0.0000
111.5600 0.0000
111.5700 1.2681
111.5800 1.7712
111.5900 0.3206
111.6000 0.6929
111.6100 0.0000
111.6200 0.9873
111.6300 1.6042
111.6400 0.2907
111.6500 0.0000
111.6600 0.0000
111.6700 0.0000
111.6800 1.0278
111.6900 0.0000
111.7000 0.0000
111.7100 0.0000
111.7200 0.0000
111.7300 0.0000
111.7400 0.0000
111.7500 0.8237
111.7600 0.1727
111.7700 0.0000
111.7800 0.2138
111.7900 1.7321
111.8000 0.0000
111.8100 0.3868
111.8200 0.5974
111.8300 0.0000
111.8400 0.9896
111.8500 0.7147
111.8600 0.2127
111.8700 0.0000
111.8800 0.0000
111.8900 0.0000
111.9000 0.0000
111.9100 0.3305
111.9200 0.6501
111.9300 0.0000
111.9400 0.0000
111.9500 0.0000
111.9600 0.0000
111.9700 0.0000
111.9800 0.0000
111.9900 0.9882
112.0000 0.0000
112.0100 0.0000
112.0200 0.0000
112.0300 0.4838
112.0400 0.5462
112.0500 0.6240
112.0600 0.3236
112.0700 1.6848
112.0800 0.3036
112.0900 0.0000
112.1000 0.0000
112.1100 0.0000
112.1200 0.0000
112.1300 0.4233
112.1400 0.5999
112.1500 0.0000
112.1600 0.6759
112.1700 1.2617
112.1800 0.8750
112.1900 1.1383
112.2000 0.0000
112.2100 0.1687
112.2200 1.7916
112.2300 0.0000
112.2400 1.0515
112.2500 0.0723
112.2600 1.5679
112.2700 1.0447
112.2800 0.2567
112.2900 0.0000
112.3000 0.0000
112.3100 0.0000
112.3200 1.0023
112.3300 0.0000
112.3400 0.0000
112.3500 0.0000
112.3600 0.0000
112.3700 0.0000
112.3800 0.7435
112.3900 1.0774
112.4000 0.1308
112.4100 0.9989
112.4200 0.0000
112.4300 0.2432
112.4400 0.7473
112.4500 0.0000
112.4600 0.0000
112.4700 0.0000
112.4800 0.0000
112.4900 0.0000
112.5000 0.0000
112.5100 0.0000
112.5200 1.0023
112.5300 0.0000
112.5400 1.9743
112.5500 0.3692
112.5600 0.6069
112.5700 0.0000
112.5800 0.0000
112.5900 0.0000
112.6000 0.0000
112.6100 0.0000
112.6200 0.0410
112.6300 1.0106
112.6400 0.0000
112.6500 0.0000
112.6600 0.9442
112.6700 0.0000
112.6800 0.0000
112.6900 0.0000
112.7000 0.9463
112.7100 0.0000
112.7200 0.0000
112.7300 0.0000
112.7400 1.0170
112.7500 0.0000
112.7600 0.3758
112.7700 0.6666
112.7800 0.0000
112.7900 0.0000
112.8000 0.0000
112.8100 1.7190
112.8200 0.3459
112.8300 0.9909
112.8400 0.9490
112.8500 0.0000
112.8600 0.2943
112.8700 0.6724
112.8800 0.0000
112.8900 0.9760
112.9000 0.0000
112.9100 0.0000
112.9200 1.0472
112.9300 0.0000
112.9400 0.0000
112.9500 0.0000
112.9600 0.0000
112.9700 1.0110
112.9800 0.0000
112.9900 0.0000
113.0000 0.0000
113.0100 0.0000
113.0200 0.8194
113.0300 0.1863
113.0400 0.0000
113.0500 0.0000
113.0600 0.1933
113.0700 0.8118
113.0800 1.3600
113.0900 0.6352
113.1000 2.1864
113.1100 0.8898
113.1200 0.0000
113.1300 0.0000
113.1400 0.0000
113.1500 3.1338
113.1600 0.8731
113.1700 0.9710
113.1800 1.0048
113.1900 0.0000
113.2000 0.5122
113.2100 2.5550
113.2200 0.7066
113.2300 0.2990
113.2400 0.0000
113.2500 0.0000
113.2600 0.0000
113.2700 0.0000
113.2800 0.9713
113.2900 0.0000
113.3000 0.0000
113.3100 0.0000
113.3200 0.0000
113.3300 0.0000
113.3400 0.8062
113.3500 0.1589
113.3600 0.0490
113.3700 1.9788
113.3800 0.0000
113.3900 0.0000
113.4000 0.0000
113.4100 0.5123
113.4200 0.5203
113.4300 0.0000
113.4400 1.0010
113.4500 0.0000
113.4600 0.9555
113.4700 0.0315
113.4800 0.0000
113.4900 0.2556
113.5000 0.7615
113.5100 0.0000
113.5200 0.9711
113.5300 0.0000
113.5400 0.0000
113.5500 0.9081
113.5600 0.2025
113.5700 0.0065
113.5800 2.0294
113.5900 0.0000
113.6000 0.0000
113.6100 0.9288
113.6200 0.0000
113.6300 0.9898
113.6400 0.0000
113.6500 0.9756
113.6600 0.0000
113.6700 0.0000
113.6800 0.9796
113.6900 0.0000
113.7000 0.0000
113.7100 0.0000
113.7200 0.4124
113.7300 0.5640
113.7400 0.9865
113.7500 0.6681
113.7600 1.1041
113.7700 0.2064
113.7800 0.9714
113.7900 0.0000
113.8000 0.0000
113.8100 1.1680
113.8200 0.0000
113.8300 0.0000
113.8400 0.0000
113.8500 0.6807
113.8600 1.6467
113.8700 0.8564
113.8800 0.8013
113.8900 0.0000
113.9000 0.0000
113.9100 0.0000
113.9200 0.0000
113.9300 0.0000
113.9400 0.5155
113.9500 0.5175
113.9600 0.0000
113.9700 0.0000
113.9800 0.9220
113.9900 0.1298
114.0000 0.0000
114.0100 0.0000
114.0200 0.2455
114.0300 0.7203
114.0400 0.4608
114.0500 0.5794
114.0600 0.0000
114.0700 0.0000
114.0800 1.7391
114.0900 2.1780
114.1000 0.0091
114.1100 0.9659
114.1200 0.0000
114.1300 0.0000
114.1400 0.0000
114.1500 0.0000
114.1600 0.0000
114.1700 0.0000
114.1800 1.7582
114.1900 1.1061
114.2000 1.0508
114.2100 0.0445
114.2200 0.0000
114.2300 0.0000
114.2400 0.0000
114.2500 0.0000
114.2600 0.0000
114.2700 0.0000
114.2800 0.0000
114.2900 1.0369
114.3000 0.0000
114.3100 0.9904
114.3200 0.9239
114.3300 0.0000
114.3400 0.2667
114.3500 1.6843
114.3600 1.0850
114.3700 0.0000
114.3800 0.0000
114.3900 0.0000
114.4000 0.0000
114.4100 0.0000
114.4200 0.0000
114.4300 0.0000
114.4400 0.0000
114.4500 0.0000
114.4600 0.4071
114.4700 0.5919
114.4800 0.0000
114.4900 0.0000
114.5000 0.0000
114.5100 0.0000
114.5200 0.0000
114.5300 0.0000
114.5400 0.9992
114.5500 0.0000
114.5600 0.0000
114.5700 0.0000
114.5800 1.0496
114.5900 0.0000
114.6000 0.9756
114.6100 0.0000
114.6200 0.9068
114.6300 1.0379
114.6400 0.0000
114.6500 0.0000
114.6600 0.0000
114.6700 0.0000
114.6800 0.0000
114.6900 0.0000
114.7000 0.0000
114.7100 0.0000
114.7200 1.7623
114.7300 0.1289
114.7400 1.0042
114.7500 0.9569
114.7600 0.0000
114.7700 0.0000
114.7800 0.0000
114.7900 0.0000
114.8000 0.6352
114.8100 1.3870
114.8200 0.0000
114.8300 0.9772
114.8400 1.1417
114.8500 1.1003
114.8600 0.9274
114.8700 0.0000
114.8800 1.1362
114.8900 0.0000
114.9000 0.0000
114.9100 0.9726
114.9200 0.0000
114.9300 0.0000
114.9400 0.0000
114.9500 0.0000
114.9600 0.0000
114.9700 0.0000
114.9800 0.0000
114.9900 0.0000
115.0000 0.9975
115.0100 0.0000
115.0200 0.0000
115.0300 0.0000
115.0400 0.0000
115.0500 0.0000
115.0600 0.0000
115.0700 0.0000
115.0800 0.0000
115.0900 0.0000
115.1000 2.4396
115.1100 3.4961
115.1200 0.0000
115.1300 0.9779
115.1400 0.8214
115.1500 7.0491
115.1600 1.0232
115.1700 2.1158
115.1800 0.5988
115.1900 2.3373
115.2000 0.0000
115.2100 0.0000
115.2200 0.0000
115.2300 0.0000
115.2400 0.0000
115.2500 0.0000
115.2600 0.9823
115.2700 1.0233
115.2800 1.0310
115.2900 0.8483
115.3000 0.0000
115.3100 0.0000
115.3200 0.0000
115.3300 0.0000
115.3400 0.0000
115.3500 0.0000
115.3600 0.0000
115.3700 0.9626
115.3800 0.0000
115.3900 0.0000
115.4000 1.1294
115.4100 0.0000
115.4200 0.9890
115.4300 0.9912
115.4400 0.1394
115.4500 0.0000
115.4600 1.1386
115.4700 0.0000
115.4800 0.1627
115.4900 1.3214
115.5000 1.9924
115.5100 0.7461
115.5200 0.0000
115.5300 0.0000
115.5400 0.0000
115.5500 0.6952
115.5600 0.3029
115.5700 0.0000
115.5800 3.1192
115.5900 0.0761
115.6000 0.9501
115.6100 0.0000
115.6200 1.4501
115.6300 0.6468
115.6400 0.0000
115.6500 0.6338
115.6600 1.0949
115.6700 0.2667
115.6800 0.0000
115.6900 1.0333
115.7000 0.9706
115.7100 0.0000
115.7200 0.0000
115.7300 0.0000
115.7400 0.4754
115.7500 1.5420
115.7600 0.7067
115.7700 1.8493
115.7800 1.2958
115.7900 2.1593
115.8000 2.0476
115.8100 1.0783
115.8200 0.8332
115.8300 0.0000
115.8400 0.9348
115.8500 0.0000
115.8600 2.1410
115.8700 2.0235
115.8800 2.7008
115.8900 1.3759
115.9000 1.9795
115.9100 0.9210
115.9200 0.9496
115.9300 0.3233
115.9400 2.0729
115.9500 0.4007
115.9600 0.1825
115.9700 1.7733
115.9800 0.3338
115.9900 2.7356
116.0000 2.2205
116.0100 1.1002
116.0200 3.8788
116.0300 0.2419
116.0400 1.1488
116.0500 0.6895
116.0600 0.4950
116.0700 1.4257
116.0800 2.9604
116.0900 0.0000
116.1000 0.9562
116.1100 0.0000
116.1200 1.0864
116.1300 0.0000
116.1400 0.5127
116.1500 2.4264
116.1600 0.4403
116.1700 1.5369
116.1800 1.6569
116.1900 0.3689
116.2000 0.8844
116.2100 2.9727
116.2200 0.2628
116.2300 1.9322
116.2400 0.9519
116.2500 0.0000
116.2600 0.0000
116.2700 0.0000
116.2800 1.5867
116.2900 2.0489
116.3000 1.0729
116.3100 1.0871
116.3200 1.1132
116.3300 2.0190
116.3400 0.1535
116.3500 2.1048
116.3600 1.7856
116.3700 0.9348
116.3800 0.9930
116.3900 0.9889
116.4000 2.0273
116.4100 0.0000
116.4200 1.8585
116.4300 1.1742
116.4400 0.9672
116.4500 0.0000
116.4600 1.0862
116.4700 0.0000
116.4800 0.0000
116.4900 0.0000
116.5000 2.6439
116.5100 0.3339
116.5200 0.0000
116.5300 1.0189
116.5400 0.0568
116.5500 0.1406
116.5600 0.8937
116.5700 0.0000
116.5800 0.0000
116.5900 0.0000
116.6000 0.5980
116.6100 0.3857
116.6200 0.0000
116.6300 0.0000
116.6400 0.0000
116.6500 0.9562
116.6600 0.0000
116.6700 0.0000
116.6800 0.0000
116.6900 0.4712
116.7000 0.5587
116.7100 1.6392
116.7200 2.0634
116.7300 1.2862
116.7400 0.0000
116.7500 0.0000
116.7600 0.9646
116.7700 0.2092
116.7800 1.7825
116.7900 0.0000
116.8000 0.0000
116.8100 0.0000
116.8200 1.8946
116.8300 0.0000
116.8400 0.0000
116.8500 0.0000
116.8600 0.0000
116.8700 0.0000
116.8800 0.0000
116.8900 0.0000
116.9000 0.0000
116.9100 1.9417
116.9200 0.0000
116.9300 0.0000
116.9400 1.8549
116.9500 1.1528
116.9600 0.0060
116.9700 0.9716
116.9800 0.0000
116.9900 0.0000
117.0000 0.0000
117.0100 0.4704
117.0200 0.5135
117.0300 0.0000
117.0400 1.0365
117.0500 0.0000
117.0600 0.0000
117.0700 0.0000
117.0800 0.9809
117.0900 1.2046
117.1000 0.7672
117.1100 1.8086
117.1200 3.1488
117.1300 0.0000
117.1400 0.0000
117.1500 0.9586
117.1600 0.0000
117.1700 0.9939
117.1800 0.0858
117.1900 1.2978
117.2000 2.5515
117.2100 0.0000
117.2200 0.0000
117.2300 0.0000
117.2400 1.0845
117.2500 1.4268
117.2600 0.4920
117.2700 0.0000
117.2800 0.0269
117.2900 0.9799
117.3000 0.0000
117.3100 0.0974
117.3200 1.2222
117.3300 0.8026
117.3400 0.8067
117.3500 1.4068
117.3600 0.6394
117.3700 0.9445
117.3800 0.0000
117.3900 1.0004
117.4000 2.7393
117.4100 5.0007
117.4200 0.9933
117.4300 1.8587
117.4400 0.0000
117.4500 0.6039
117.4600 2.8410
117.4700 1.3419
117.4800 0.1723
117.4900 0.0099
117.5000 1.0819
117.5100 0.9999
117.5200 0.0000
117.5300 0.3906
117.5400 1.6325
117.5500 0.5848
117.5600 0.4315
117.5700 0.0000
117.5800 0.0000
117.5900 0.9543
117.6000 0.0471
117.6100 3.0377
117.6200 0.0000
117.6300 2.1242
117.6400 2.2553
117.6500 2.2265
117.6600 1.0729
117.6700 0.3685
117.6800 0.7851
117.6900 1.2872
117.7000 0.9076
117.7100 3.0606
117.7200 0.1764
117.7300 0.8032
117.7400 0.0000
117.7500 0.4714
117.7600 1.5476
117.7700 0.0000
117.7800 0.0000
117.7900 0.0000
117.8000 0.0000
117.8100 0.0000
117.8200 0.9919
117.8300 0.0000
117.8400 0.0000
117.8500 0.0000
117.8600 0.0000
117.8700 2.1020
117.8800 0.0000
117.8900 0.0000
117.9000 0.0000
117.9100 1.0238
117.9200 0.0000
117.9300 0.0000
117.9400 0.0000
117.9500 0.0000
117.9600 0.4732
117.9700 0.5888
117.9800 0.9760
117.9900 1.0317
118.0000 1.7792
118.0100 2.1172
118.0200 1.0969
118.0300 0.2438
118.0400 0.8682
118.0500 0.0000
118.0600 1.0965
118.0700 0.4914
118.0800 1.0872
118.0900 1.3897
118.1000 0.0000
118.1100 1.9513
118.1200 0.1403
118.1300 0.0000
118.1400 0.0000
118.1500 0.0000
118.1600 0.0000
118.1700 0.0000
118.1800 2.0144
118.1900 0.0000
118.2000 0.0000
118.2100 0.9717
118.2200 0.9152
118.2300 1.0281
118.2400 0.0988
118.2500 1.1431
118.2600 1.8283
118.2700 0.0000
118.2800 0.9698
118.2900 0.0000
118.3000 0.0000
118.3100 2.0198
118.3200 0.8070
118.3300 0.1494
118.3400 0.0000
118.3500 0.0000
118.3600 0.9556
118.3700 0.0000
118.3800 0.0000
118.3900 0.0000
118.4000 0.0000
118.4100 0.0000
118.4200 0.0000
118.4300 0.9899
118.4400 0.9613
118.4500 0.9481
118.4600 0.0000
118.4700 0.0000
118.4800 0.0000
118.4900 0.0000
118.5000 1.0204
118.5100 0.0000
118.5200 0.0000
118.5300 1.0560
118.5400 1.9636
118.5500 0.0789
118.5600 0.0000
118.5700 0.0000
118.5800 0.0000
118.5900 0.9983
118.6000 0.0000
118.6100 0.9967
118.6200 0.0000
118.6300 0.0000
118.6400 0.0000
118.6500 0.9647
118.6600 0.0000
118.6700 0.0000
118.6800 0.0000
118.6900 0.0000
118.7000 0.0000
118.7100 0.0000
118.7200 0.0000
118.7300 0.0000
118.7400 1.8627
118.7500 1.1775
118.7600 0.9582
118.7700 0.0000
118.7800 0.1748
118.7900 0.7653
118.8000 0.0000
118.8100 0.0000
118.8200 2.4918
118.8300 0.4231
118.8400 0.0000
118.8500 0.0000
118.8600 0.0000
118.8700 0.0000
118.8800 0.0000
118.8900 0.2135
118.9000 0.7385
118.9100 0.4231
118.9200 0.6013
118.9300 0.0000
118.9400 0.9606
118.9500 0.0000
118.9600 0.0000
118.9700 0.0000
118.9800 0.0000
118.9900 0.1612
119.0000 0.7970
119.0100 0.0000
119.0200 0.9718
119.0300 0.0000
119.0400 0.0000
119.0500 0.0000
119.0600 0.0000
119.0700 0.0000
119.0800 1.0502
119.0900 0.0000
119.1000 0.0000
119.1100 0.0000
119.1200 0.0000
119.1300 0.0000
119.1400 0.0000
119.1500 0.0000
119.1600 0.0000
119.1700 0.0000
119.1800 3.0385
119.1900 0.0410
119.2000 0.0000
119.2100 0.9992
119.2200 0.0000
119.2300 0.4081
119.2400 0.5329
119.2500 1.0399
119.2600 0.0000
119.2700 1.0380
119.2800 0.8469
119.2900 2.0478
119.3000 0.0902
119.3100 0.8649
119.3200 1.2610
119.3300 0.7493
119.3400 0.4580
119.3500 0.5123
119.3600 1.6510
119.3700 0.3391
119.3800 0.0000
119.3900 0.0000
119.4000 0.0000
119.4100 0.0000
119.4200 0.9972
119.4300 0.0000
119.4400 0.0000
119.4500 0.9791
119.4600 0.0000
119.4700 0.6821
119.4800 0.2935
119.4900 0.9277
119.5000 2.0055
119.5100 0.9786
119.5200 0.0000
119.5300 0.0000
119.5400 0.0000
119.5500 0.0000
119.5600 0.0000
119.5700 0.0000
119.5800 0.0000
119.5900 0.0000
119.6000 0.0000
119.6100 0.9786
119.6200 0.0000
119.6300 2.1635
119.6400 0.7993
119.6500 0.0000
119.6600 0.0000
119.6700 0.0000
119.6800 1.6636
119.6900 1.0736
119.7000 2.0816
119.7100 0.1260
119.7200 0.9562
119.7300 0.0000
119.7400 0.0000
119.7500 0.3350
119.7600 1.6496
119.7700 0.9542
119.7800 0.6238
119.7900 1.0618
119.8000 1.2722
119.8100 0.0000
119.8200 0.9587
119.8300 0.0000
119.8400 0.0000
119.8500 0.0000
119.8600 0.0000
119.8700 0.4659
119.8800 0.5152
119.8900 0.0000
119.9000 0.8071
119.9100 1.9911
119.9200 0.1359
119.9300 0.0000
119.9400 0.0000
119.9500 0.0000
119.9600 0.0000
119.9700 0.0000
119.9800 0.0000
119.9900 0.0000
