#Collected Data-18
#Intensity_unit=counts
#Attenuator_coefficient=1.000000
40.0000 0.0000
40.0100 0.0000
40.0200 0.0000
40.0300 0.0000
40.0400 0.0000
40.0500 0.0000
40.0600 0.0000
40.0700 0.0000
40.0800 1.0135
40.0900 0.0000
40.1000 0.0000
40.1100 0.0000
40.1200 0.0000
40.1300 3.3617
40.1400 0.6929
40.1500 0.9951
40.1600 0.0381
40.1700 0.0000
40.1800 0.9758
40.1900 0.0000
40.2000 0.0000
40.2100 0.0000
40.2200 0.0000
40.2300 0.0000
40.2400 0.8530
40.2500 0.1966
40.2600 0.0000
40.2700 0.0000
40.2800 0.0000
40.2900 0.9828
40.3000 0.3995
40.3100 2.1832
40.3200 0.5417
40.3300 0.6698
40.3400 0.3416
40.3500 0.0000
40.3600 0.0000
40.3700 0.9750
40.3800 0.0000
40.3900 0.0000
40.4000 0.0000
40.4100 0.4480
40.4200 0.6254
40.4300 0.6675
40.4400 0.4337
40.4500 5.5261
40.4600 3.3167
40.4700 3.0609
40.4800 0.0488
40.4900 0.0000
40.5000 0.0000
40.5100 1.9636
40.5200 0.0000
40.5300 0.0000
40.5400 0.6655
40.5500 0.3671
40.5600 0.0000
40.5700 0.9852
40.5800 2.0166
40.5900 0.0000
40.6000 0.0000
40.6100 0.3060
40.6200 0.6963
40.6300 0.0000
40.6400 0.0000
40.6500 0.0000
40.6600 0.0000
40.6700 0.0000
40.6800 0.0000
40.6900 0.0649
40.7000 1.1626
40.7100 1.1489
40.7200 0.0000
40.7300 0.6283
40.7400 0.0000
40.7500 0.0000
40.7600 0.0000
40.7700 1.0012
40.7800 0.0000
40.7900 0.0000
40.8000 1.9558
40.8100 0.0000
40.8200 0.2560
40.8300 0.6342
40.8400 2.1393
40.8500 0.0000
40.8600 0.0000
40.8700 0.0000
40.8800 0.0000
40.8900 1.0110
40.9000 0.0000
40.9100 0.1304
40.9200 0.8207
40.9300 0.0000
40.9400 0.0000
40.9500 1.0111
40.9600 0.9535
40.9700 0.0000
40.9800 0.0000
40.9900 0.8903
41.0000 0.1075
41.0100 0.0000
41.0200 0.0000
41.0300 0.0000
41.0400 0.0000
41.0500 1.1771
41.0600 0.0000
41.0700 0.0000
41.0800 0.0000
41.0900 0.0000
41.1000 0.9552
41.1100 1.0441
41.1200 1.0548
41.1300 2.0878
41.1400 0.2988
41.1500 1.7122
41.1600 0.0000
41.1700 1.2414
41.1800 0.8579
41.1900 0.9253
41.2000 1.2575
41.2100 0.9829
41.2200 1.0460
41.2300 0.1569
41.2400 0.8380
41.2500 0.0000
41.2600 0.0000
41.2700 0.5069
41.2800 0.4401
41.2900 0.0000
41.3000 0.8242
41.3100 1.0360
41.3200 0.0814
41.3300 0.6432
41.3400 0.0000
41.3500 0.6085
41.3600 0.7009
41.3700 0.0000
41.3800 0.0000
41.3900 0.0000
41.4000 0.0000
41.4100 0.0000
41.4200 0.0000
41.4300 0.0456
41.4400 0.9556
41.4500 0.0000
41.4600 0.0000
41.4700 0.4072
41.4800 0.5551
41.4900 0.0000
41.5000 0.9834
41.5100 0.0000
41.5200 0.0000
41.5300 0.0000
41.5400 0.0000
41.5500 0.0000
41.5600 1.0341
41.5700 0.0000
41.5800 0.4538
41.5900 0.5295
41.6000 0.0000
41.6100 0.0000
41.6200 0.0000
41.6300 0.0000
41.6400 0.0000
41.6500 0.1216
41.6600 0.8726
41.6700 0.0000
41.6800 0.0000
41.6900 0.0000
41.7000 0.0000
41.7100 0.0000
41.7200 1.9204
41.7300 0.0000
41.7400 0.0000
41.7500 0.0679
41.7600 0.9578
41.7700 0.0000
41.7800 0.0000
41.7900 0.8391
41.8000 1.7660
41.8100 0.0000
41.8200 0.0000
41.8300 0.0000
41.8400 0.0000
41.8500 0.0000
41.8600 0.0000
41.8700 0.0000
41.8800 0.0000
41.8900 0.3766
41.9000 0.5947
41.9100 0.0000
41.9200 0.0000
41.9300 1.0078
41.9400 0.0000
41.9500 0.0000
41.9600 0.0000
41.9700 0.0000
41.9800 0.0000
41.9900 0.0000
42.0000 0.0000
42.0100 0.0000
42.0200 0.0000
42.0300 0.0000
42.0400 0.0000
42.0500 0.0000
42.0600 0.0000
42.0700 0.0000
42.0800 0.0000
42.0900 0.0000
42.1000 0.0000
42.1100 0.0000
42.1200 0.0000
42.1300 0.0000
42.1400 0.0000
42.1500 0.0000
42.1600 0.0000
42.1700 1.0132
42.1800 0.0000
42.1900 0.0000
42.2000 0.9653
42.2100 0.0000
42.2200 0.0000
42.2300 0.0000
42.2400 0.0000
42.2500 0.0000
42.2600 0.0000
42.2700 0.0000
42.2800 0.9761
42.2900 0.0000
42.3000 0.2921
42.3100 0.8406
42.3200 0.0000
42.3300 0.0000
42.3400 0.0000
42.3500 0.9704
42.3600 0.0000
42.3700 0.0000
42.3800 0.0000
42.3900 0.0000
42.4000 1.2910
42.4100 1.0958
42.4200 0.6838
42.4300 0.0000
42.4400 0.0000
42.4500 0.0000
42.4600 0.0000
42.4700 0.0000
42.4800 0.0000
42.4900 0.9837
42.5000 0.0000
42.5100 0.2403
42.5200 0.7601
42.5300 0.4003
42.5400 0.5329
42.5500 0.0000
42.5600 0.0000
42.5700 1.0566
42.5800 0.0000
42.5900 0.0000
42.6000 0.0881
42.6100 0.8935
42.6200 0.0000
42.6300 0.0000
42.6400 0.4713
42.6500 0.5372
42.6600 0.0000
42.6700 0.7473
42.6800 1.1465
42.6900 0.1649
42.7000 0.0000
42.7100 0.0000
42.7200 0.0000
42.7300 0.0000
42.7400 0.0000
42.7500 0.9864
42.7600 0.9646
42.7700 0.0000
42.7800 0.0000
42.7900 0.0000
42.8000 1.9150
42.8100 0.0438
42.8200 0.0000
42.8300 0.0000
42.8400 0.0000
42.8500 0.0000
42.8600 0.9926
42.8700 1.2918
42.8800 1.7246
42.8900 0.9868
42.9000 0.0000
42.9100 1.0291
42.9200 1.0545
42.9300 0.0000
42.9400 0.0000
42.9500 1.0882
42.9600 1.0097
42.9700 0.9805
42.9800 0.0000
42.9900 0.0000
43.0000 0.0000
43.0100 0.0000
43.0200 0.0000
43.0300 0.1464
43.0400 0.8381
43.0500 0.0000
43.0600 0.4098
43.0700 0.5391
43.0800 0.9688
43.0900 0.0000
43.1000 0.0000
43.1100 0.0000
43.1200 0.9734
43.1300 0.9775
43.1400 0.0000
43.1500 0.0000
43.1600 0.9744
43.1700 0.0000
43.1800 0.0000
43.1900 0.6767
43.2000 1.1602
43.2100 0.2651
43.2200 0.0000
43.2300 0.0000
43.2400 0.0000
43.2500 0.0000
43.2600 0.3281
43.2700 2.1216
43.2800 1.5588
43.2900 0.0000
43.3000 0.0000
43.3100 0.0000
43.3200 0.9622
43.3300 0.9777
43.3400 0.0000
43.3500 0.0000
43.3600 0.0000
43.3700 1.0085
43.3800 0.0000
43.3900 0.9998
43.4000 0.6316
43.4100 1.0967
43.4200 0.2671
43.4300 0.0000
43.4400 0.0000
43.4500 0.0000
43.4600 0.0000
43.4700 0.0000
43.4800 1.0909
43.4900 0.0000
43.5000 0.0000
43.5100 0.7209
43.5200 0.3398
43.5300 0.0000
43.5400 0.0000
43.5500 0.0000
43.5600 0.0000
43.5700 1.0581
43.5800 0.0000
43.5900 0.0000
43.6000 0.0000
43.6100 0.0000
43.6200 0.0000
43.6300 0.0000
43.6400 0.0000
43.6500 0.0000
43.6600 0.0000
43.6700 0.0000
43.6800 0.0000
43.6900 0.0000
43.7000 0.0000
43.7100 0.0000
43.7200 0.0000
43.7300 0.0000
43.7400 1.0313
43.7500 0.0000
43.7600 0.0000
43.7700 0.1331
43.7800 0.8612
43.7900 0.0000
43.8000 0.0000
43.8100 0.0000
43.8200 0.0000
43.8300 0.0000
43.8400 0.0000
43.8500 0.0000
43.8600 0.0000
43.8700 0.0000
43.8800 0.1675
43.8900 0.8051
43.9000 1.0112
43.9100 0.0000
43.9200 0.5804
43.9300 0.4753
43.9400 0.0000
43.9500 0.0000
43.9600 0.0000
43.9700 0.0000
43.9800 0.0000
43.9900 0.0000
44.0000 0.0000
44.0100 0.0000
44.0200 0.0000
44.0300 0.0000
44.0400 0.9843
44.0500 0.7713
44.0600 0.2215
44.0700 1.9253
44.0800 0.0328
44.0900 0.0000
44.1000 0.0000
44.1100 0.0000
44.1200 0.0000
44.1300 0.0000
44.1400 1.0051
44.1500 0.0000
44.1600 0.0000
44.1700 0.0000
44.1800 0.0000
44.1900 0.0000
44.2000 0.0000
44.2100 0.0000
44.2200 0.0000
44.2300 0.0000
44.2400 1.0771
44.2500 0.0000
44.2600 0.0000
44.2700 1.0450
44.2800 0.0000
44.2900 0.0000
44.3000 0.9737
44.3100 0.9646
44.3200 0.0000
44.3300 0.8676
44.3400 1.1983
44.3500 0.6161
44.3600 0.3960
44.3700 1.7585
44.3800 0.1940
44.3900 1.9337
44.4000 0.1684
44.4100 2.9090
44.4200 1.2973
44.4300 1.3980
44.4400 0.0000
44.4500 0.0000
44.4600 0.0000
44.4700 0.0000
44.4800 0.0000
44.4900 0.0000
44.5000 0.0244
44.5100 0.9653
44.5200 0.0000
44.5300 0.0000
44.5400 1.0265
44.5500 0.9891
44.5600 1.0025
44.5700 0.7181
44.5800 0.3296
44.5900 0.0000
44.6000 0.0000
44.6100 0.9928
44.6200 0.0000
44.6300 0.0000
44.6400 0.0000
44.6500 0.0000
44.6600 0.0000
44.6700 0.0000
44.6800 0.0000
44.6900 0.0000
44.7000 1.9850
44.7100 0.0000
44.7200 1.0086
44.7300 0.0000
44.7400 0.0000
44.7500 2.0401
44.7600 0.0000
44.7700 0.9832
44.7800 0.0000
44.7900 3.9455
44.8000 0.0000
44.8100 2.9753
44.8200 0.0461
44.8300 0.9722
44.8400 0.4542
44.8500 1.4862
44.8600 0.0000
44.8700 0.0000
44.8800 0.0000
44.8900 0.0000
44.9000 0.0000
44.9100 0.0000
44.9200 0.0000
44.9300 0.0000
44.9400 1.1666
44.9500 0.7931
44.9600 0.5097
44.9700 0.6345
44.9800 0.0000
44.9900 0.0000
45.0000 0.0000
45.0100 0.0000
45.0200 0.0000
45.0300 1.1322
45.0400 2.0091
45.0500 0.0000
45.0600 0.0000
45.0700 0.0000
45.0800 0.0000
45.0900 0.0000
45.1000 0.0000
45.1100 0.0000
45.1200 0.0000
45.1300 0.0000
45.1400 0.0000
45.1500 0.0000
45.1600 0.0000
45.1700 1.0443
45.1800 0.0000
45.1900 0.0000
45.2000 0.0000
45.2100 0.0000
45.2200 0.7595
45.2300 1.1324
45.2400 0.0000
45.2500 0.1059
45.2600 0.9100
45.2700 0.0000
45.2800 0.0000
45.2900 0.0000
45.3000 1.0606
45.3100 0.0000
45.3200 0.0000
45.3300 0.8595
45.3400 0.1406
45.3500 0.0000
45.3600 0.0000
45.3700 0.0000
45.3800 0.0000
45.3900 0.0000
45.4000 1.0360
45.4100 0.9557
45.4200 0.0000
45.4300 0.0000
45.4400 0.8543
45.4500 1.0710
45.4600 0.9855
45.4700 0.0000
45.4800 0.9880
45.4900 0.4156
45.5000 1.7405
45.5100 0.0000
45.5200 1.9608
45.5300 0.0000
45.5400 0.9830
45.5500 0.0000
45.5600 0.0000
45.5700 0.0000
45.5800 0.0000
45.5900 0.0000
45.6000 0.0000
45.6100 0.0000
45.6200 0.0000
45.6300 0.0000
45.6400 0.0000
45.6500 0.0000
45.6600 0.0000
45.6700 0.0000
45.6800 0.0000
45.6900 0.9856
45.7000 0.0000
45.7100 1.0098
45.7200 0.0000
45.7300 0.0000
45.7400 0.0000
45.7500 0.0000
45.7600 0.0000
45.7700 0.0000
45.7800 0.0000
45.7900 0.0000
45.8000 0.0000
45.8100 0.0000
45.8200 0.0000
45.8300 0.0000
45.8400 0.0000
45.8500 0.0000
45.8600 0.8599
45.8700 0.1373
45.8800 0.9626
45.8900 0.0000
45.9000 0.0000
45.9100 0.0000
45.9200 0.0000
45.9300 0.0000
45.9400 0.6206
45.9500 0.3845
45.9600 0.0000
45.9700 0.0000
45.9800 0.0000
45.9900 0.0000
46.0000 0.0000
46.0100 1.0116
46.0200 0.0000
46.0300 0.4773
46.0400 0.5447
46.0500 0.0000
46.0600 0.9538
46.0700 1.0080
46.0800 0.0000
46.0900 0.0000
46.1000 0.0000
46.1100 0.0000
46.1200 0.0000
46.1300 0.0000
46.1400 0.0000
46.1500 0.0000
46.1600 0.0000
46.1700 0.0000
46.1800 1.0109
46.1900 0.9454
46.2000 0.0220
46.2100 0.0000
46.2200 0.0000
46.2300 0.0000
46.2400 0.0000
46.2500 0.9737
46.2600 0.0000
46.2700 0.7345
46.2800 1.3163
46.2900 0.0000
46.3000 0.0000
46.3100 0.0000
46.3200 0.0000
46.3300 0.0000
46.3400 0.0000
46.3500 0.0000
46.3600 0.0000
46.3700 0.0000
46.3800 0.9827
46.3900 0.9278
46.4000 0.1446
46.4100 0.0000
46.4200 0.0000
46.4300 0.0000
46.4400 0.0000
46.4500 0.0000
46.4600 0.0000
46.4700 1.1249
46.4800 0.0000
46.4900 0.3192
46.5000 0.0000
46.5100 0.6384
46.5200 0.0000
46.5300 0.0000
46.5400 0.0000
46.5500 0.0000
46.5600 0.0000
46.5700 0.0000
46.5800 0.0000
46.5900 0.0000
46.6000 0.0000
46.6100 0.0000
46.6200 0.9485
46.6300 0.0000
46.6400 0.0000
46.6500 0.0000
46.6600 0.0000
46.6700 0.0000
46.6800 0.0000
46.6900 0.0000
46.7000 0.0000
46.7100 0.0000
46.7200 0.0000
46.7300 0.0000
46.7400 0.0000
46.7500 0.0000
46.7600 0.0000
46.7700 0.0000
46.7800 0.0000
46.7900 0.0000
46.8000 0.0000
46.8100 1.6702
46.8200 2.2853
46.8300 0.0761
46.8400 0.0000
46.8500 0.0000
46.8600 0.0000
46.8700 0.0000
46.8800 0.9794
46.8900 0.0000
46.9000 0.0000
46.9100 0.0000
46.9200 0.0000
46.9300 0.9716
46.9400 0.0557
46.9500 1.8879
46.9600 0.0000
46.9700 0.4514
46.9800 1.3367
46.9900 1.5012
47.0000 2.6772
47.0100 0.0000
47.0200 1.4098
47.0300 0.0000
47.0400 0.0000
47.0500 0.0939
47.0600 0.8923
47.0700 0.2957
47.0800 1.1271
47.0900 1.5558
47.1000 0.0000
47.1100 0.0000
47.1200 0.0000
47.1300 0.0000
47.1400 0.8765
47.1500 0.0512
47.1600 0.0000
47.1700 0.0000
47.1800 0.0000
47.1900 0.9788
47.2000 0.0000
47.2100 0.0000
47.2200 0.0000
47.2300 0.0000
47.2400 0.0000
47.2500 0.0000
47.2600 0.0000
47.2700 0.0000
47.2800 0.0000
47.2900 0.0000
47.3000 0.0000
47.3100 0.0000
47.3200 0.0000
47.3300 0.0000
47.3400 0.0000
47.3500 0.0000
47.3600 0.0000
47.3700 0.9685
47.3800 0.0000
47.3900 0.0000
47.4000 0.4160
47.4100 1.1276
47.4200 0.5143
47.4300 0.0000
47.4400 0.0000
47.4500 0.0000
47.4600 0.0000
47.4700 0.0000
47.4800 0.0000
47.4900 0.0000
47.5000 0.0000
47.5100 0.0000
47.5200 0.0000
47.5300 0.0000
47.5400 0.0000
47.5500 1.0318
47.5600 0.0000
47.5700 0.0000
47.5800 0.0000
47.5900 1.0205
47.6000 0.0000
47.6100 0.0000
47.6200 0.0000
47.6300 0.0000
47.6400 0.6556
47.6500 0.3310
47.6600 0.0000
47.6700 0.0000
47.6800 0.9693
47.6900 0.1338
47.7000 0.8469
47.7100 0.0000
47.7200 0.0000
47.7300 0.0000
47.7400 0.0000
47.7500 0.0000
47.7600 0.0000
47.7700 0.0000
47.7800 0.0000
47.7900 0.0000
47.8000 0.0000
47.8100 0.0000
47.8200 0.3731
47.8300 1.1540
47.8400 0.5928
47.8500 0.0000
47.8600 0.7213
47.8700 1.2486
47.8800 0.0000
47.8900 0.0000
47.9000 0.0000
47.9100 0.0000
47.9200 0.0000
47.9300 0.0000
47.9400 0.0000
47.9500 0.0000
47.9600 0.0000
47.9700 0.0000
47.9800 0.0000
47.9900 0.0000
48.0000 0.0000
48.0100 0.0000
48.0200 0.0000
48.0300 0.0000
48.0400 0.0000
48.0500 0.0000
48.0600 0.6166
48.0700 1.1055
48.0800 0.2836
48.0900 0.0000
48.1000 0.0000
48.1100 0.0000
48.1200 0.0000
48.1300 0.0000
48.1400 0.9761
48.1500 0.0000
48.1600 0.9536
48.1700 0.9742
48.1800 0.0000
48.1900 0.0000
48.2000 0.0000
48.2100 0.9777
48.2200 0.9329
48.2300 0.0000
48.2400 0.0000
48.2500 0.0000
48.2600 0.0000
48.2700 0.0000
48.2800 0.0000
48.2900 0.0000
48.3000 0.0000
48.3100 0.0000
48.3200 0.0000
48.3300 0.0000
48.3400 0.0000
48.3500 0.0000
48.3600 0.9395
48.3700 1.0990
48.3800 0.0000
48.3900 0.0000
48.4000 0.0000
48.4100 0.6730
48.4200 0.0379
48.4300 1.3550
48.4400 0.0000
48.4500 0.0000
48.4600 0.4244
48.4700 0.6240
48.4800 1.2127
48.4900 0.8302
48.5000 0.0000
48.5100 1.0628
48.5200 0.0000
48.5300 0.0000
48.5400 0.0000
48.5500 0.0000
48.5600 0.0000
48.5700 0.0000
48.5800 0.0000
48.5900 0.0000
48.6000 0.0000
48.6100 0.0000
48.6200 0.0000
48.6300 0.0000
48.6400 0.0000
48.6500 0.0000
48.6600 1.0692
48.6700 0.0000
48.6800 0.0000
48.6900 0.0000
48.7000 0.0000
48.7100 0.0000
48.7200 0.8273
48.7300 0.1357
48.7400 0.0000
48.7500 0.0000
48.7600 0.0000
48.7700 0.9673
48.7800 0.0000
48.7900 0.0000
48.8000 0.0000
48.8100 0.0000
48.8200 1.0415
48.8300 0.0000
48.8400 0.0000
48.8500 0.0000
48.8600 0.0000
48.8700 0.0000
48.8800 0.0000
48.8900 0.0000
48.9000 0.0000
48.9100 0.0000
48.9200 0.0000
48.9300 0.0000
48.9400 0.0000
48.9500 0.9898
48.9600 0.0000
48.9700 0.0000
48.9800 0.0000
48.9900 0.0000
49.0000 0.0000
49.0100 1.0207
49.0200 0.0000
49.0300 0.7644
49.0400 0.2090
49.0500 0.0000
49.0600 0.0000
49.0700 0.0000
49.0800 0.0000
49.0900 0.0000
49.1000 0.0000
49.1100 0.0000
49.1200 1.0783
49.1300 0.9754
49.1400 0.0000
49.1500 0.0000
49.1600 0.0000
49.1700 0.1079
49.1800 0.9019
49.1900 0.0000
49.2000 0.0000
49.2100 0.0000
49.2200 0.0000
49.2300 0.0000
49.2400 1.0125
49.2500 0.0000
49.2600 0.9813
49.2700 0.0000
49.2800 0.0000
49.2900 0.0000
49.3000 0.9775
49.3100 0.0000
49.3200 0.0000
49.3300 2.1000
49.3400 0.0000
49.3500 0.0000
49.3600 0.0000
49.3700 0.0000
49.3800 0.0000
49.3900 0.0000
49.4000 1.9877
49.4100 1.0204
49.4200 0.0000
49.4300 1.0392
49.4400 0.0000
49.4500 0.0000
49.4600 0.0000
49.4700 0.0000
49.4800 0.0000
49.4900 0.0000
49.5000 0.0000
49.5100 0.0000
49.5200 0.0000
49.5300 0.4805
49.5400 0.4710
49.5500 0.0000
49.5600 0.0000
49.5700 0.0000
49.5800 0.0000
49.5900 0.0705
49.6000 0.9178
49.6100 0.0000
49.6200 0.0000
49.6300 0.0000
49.6400 0.0000
49.6500 0.0000
49.6600 0.0000
49.6700 0.0000
49.6800 0.0000
49.6900 0.0000
49.7000 0.1112
49.7100 0.9021
49.7200 0.0000
49.7300 0.0000
49.7400 0.9531
49.7500 0.0000
49.7600 0.0000
49.7700 0.7885
49.7800 0.2349
49.7900 1.9896
49.8000 0.0547
49.8100 0.9650
49.8200 0.7322
49.8300 2.2876
49.8400 0.4054
49.8500 0.5347
49.8600 0.6118
49.8700 0.3750
49.8800 0.0000
49.8900 0.0000
49.9000 1.0091
49.9100 0.0024
49.9200 0.9996
49.9300 0.0000
49.9400 0.0000
49.9500 0.0000
49.9600 0.0000
49.9700 0.9883
49.9800 1.4849
49.9900 0.4877
50.0000 0.9308
50.0100 0.0578
50.0200 0.0000
50.0300 0.0000
50.0400 0.0000
50.0500 0.0000
50.0600 0.0000
50.0700 0.0000
50.0800 0.0000
50.0900 0.8202
50.1000 0.2166
50.1100 0.0000
50.1200 0.0000
50.1300 0.0000
50.1400 0.0000
50.1500 0.3372
50.1600 0.6061
50.1700 0.0000
50.1800 0.0000
50.1900 1.0051
50.2000 0.0000
50.2100 0.0000
50.2200 0.0000
50.2300 0.0000
50.2400 0.0000
50.2500 0.0000
50.2600 0.4012
50.2700 0.6124
50.2800 0.0000
50.2900 0.0000
50.3000 2.6148
50.3100 0.4570
50.3200 0.0000
50.3300 1.0787
50.3400 1.8924
50.3500 0.0000
50.3600 0.3510
50.3700 0.6821
50.3800 1.4682
50.3900 0.4680
50.4000 0.7144
50.4100 0.2815
50.4200 0.0000
50.4300 0.0000
50.4400 0.0000
50.4500 0.0000
50.4600 1.0167
50.4700 0.0000
50.4800 0.0000
50.4900 0.0000
50.5000 0.0000
50.5100 0.0000
50.5200 0.0000
50.5300 0.9043
50.5400 0.0926
50.5500 0.9762
50.5600 0.0000
50.5700 0.0000
50.5800 0.0000
50.5900 0.0000
50.6000 0.0000
50.6100 0.6901
50.6200 0.2963
50.6300 0.0000
50.6400 0.0000
50.6500 0.0000
50.6600 0.0000
50.6700 0.0000
50.6800 0.0000
50.6900 0.0000
50.7000 0.0000
50.7100 0.0000
50.7200 0.0000
50.7300 0.8492
50.7400 0.1710
50.7500 0.0000
50.7600 0.0000
50.7700 0.0000
50.7800 0.0000
50.7900 0.0000
50.8000 0.0000
50.8100 0.0000
50.8200 1.9052
50.8300 0.0000
50.8400 0.9566
50.8500 0.0000
50.8600 0.9628
50.8700 0.1635
50.8800 0.8993
50.8900 0.3736
50.9000 0.7167
50.9100 1.0383
50.9200 0.9154
50.9300 0.0000
50.9400 0.0000
50.9500 0.0000
50.9600 0.0000
50.9700 0.0000
50.9800 0.1900
50.9900 0.7988
51.0000 1.1724
51.0100 0.0000
51.0200 0.0000
51.0300 0.0000
51.0400 0.7445
51.0500 1.0765
51.0600 0.1447
51.0700 0.9944
51.0800 0.0000
51.0900 0.0000
51.1000 0.3489
51.1100 0.7248
51.1200 0.0000
51.1300 0.5793
51.1400 1.3303
51.1500 0.0000
51.1600 0.0000
51.1700 0.9783
51.1800 0.0142
51.1900 0.0000
51.2000 0.0000
51.2100 0.0000
51.2200 0.0000
51.2300 0.9857
51.2400 0.0000
51.2500 0.7040
51.2600 1.2670
51.2700 0.0000
51.2800 2.9916
51.2900 0.0000
51.3000 0.0000
51.3100 0.0000
51.3200 1.0121
51.3300 0.0000
51.3400 0.0000
51.3500 0.0000
51.3600 1.0119
51.3700 0.0000
51.3800 0.9500
51.3900 0.0000
51.4000 0.0000
51.4100 1.0329
51.4200 0.0000
51.4300 0.8638
51.4400 1.0996
51.4500 0.6180
51.4600 0.3649
51.4700 0.7971
51.4800 0.1779
51.4900 2.0649
51.5000 0.0000
51.5100 0.0000
51.5200 0.0000
51.5300 0.9856
51.5400 0.0000
51.5500 0.9876
51.5600 0.0000
51.5700 0.7951
51.5800 2.0606
51.5900 0.3051
51.6000 0.0000
51.6100 0.0000
51.6200 0.0000
51.6300 0.0000
51.6400 0.0000
51.6500 0.0000
51.6600 0.0000
51.6700 0.0000
51.6800 0.0000
51.6900 0.0000
51.7000 1.0749
51.7100 0.0000
51.7200 0.0000
51.7300 0.0000
51.7400 0.0000
51.7500 0.9668
51.7600 0.0000
51.7700 0.0000
51.7800 0.0000
51.7900 0.0000
51.8000 0.0000
51.8100 1.9354
51.8200 0.0000
51.8300 0.0000
51.8400 0.0000
51.8500 0.0000
51.8600 0.4870
51.8700 0.4891
51.8800 0.0000
51.8900 0.0000
51.9000 0.0000
51.9100 0.0000
51.9200 0.0000
51.9300 0.0000
51.9400 0.0000
51.9500 0.0000
51.9600 0.0000
51.9700 0.3575
51.9800 0.3080
51.9900 1.9977
52.0000 0.3698
52.0100 0.0000
52.0200 0.9673
52.0300 0.9840
52.0400 0.0000
52.0500 0.0000
52.0600 0.3772
52.0700 0.5980
52.0800 0.0000
52.0900 0.0000
52.1000 0.0000
52.1100 0.0000
52.1200 0.9598
52.1300 0.0472
52.1400 1.0215
52.1500 0.0000
52.1600 0.0000
52.1700 0.0000
52.1800 0.0000
52.1900 0.0000
52.2000 0.0000
52.2100 0.0000
52.2200 1.0566
52.2300 0.9732
52.2400 0.0966
52.2500 0.9392
52.2600 0.0000
52.2700 0.0000
52.2800 0.0000
52.2900 0.0000
52.3000 0.0000
52.3100 0.0000
52.3200 0.0000
52.3300 0.0000
52.3400 1.0004
52.3500 2.0436
52.3600 0.8694
52.3700 0.0000
52.3800 0.0000
52.3900 0.0000
52.4000 0.9948
52.4100 0.0000
52.4200 0.0000
52.4300 0.0000
52.4400 0.0000
52.4500 0.0000
52.4600 0.0000
52.4700 0.0000
52.4800 0.0000
52.4900 0.0000
52.5000 0.0000
52.5100 0.0000
52.5200 0.0000
52.5300 0.0000
52.5400 1.0150
52.5500 0.0000
52.5600 0.0000
52.5700 1.0687
52.5800 0.0000
52.5900 0.0000
52.6000 0.0000
52.6100 0.0000
52.6200 0.0000
52.6300 0.7563
52.6400 0.2294
52.6500 0.0000
52.6600 0.0000
52.6700 0.9599
52.6800 0.0000
52.6900 0.3463
52.7000 0.6917
52.7100 1.0406
52.7200 0.0000
52.7300 0.0000
52.7400 0.0000
52.7500 0.0000
52.7600 0.0000
52.7700 1.1130
52.7800 0.0000
52.7900 0.0000
52.8000 0.0000
52.8100 0.0000
52.8200 0.0000
52.8300 0.0000
52.8400 0.9742
52.8500 0.8066
52.8600 0.1492
52.8700 0.0000
52.8800 0.0000
52.8900 0.3481
52.9000 0.0000
52.9100 0.6963
52.9200 0.0000
52.9300 0.0000
52.9400 0.6945
52.9500 0.3070
52.9600 0.9972
52.9700 1.0196
52.9800 0.0457
52.9900 0.5975
53.0000 0.0836
53.0100 1.2765
53.0200 0.0000
53.0300 0.0000
53.0400 0.9467
53.0500 0.0000
53.0600 1.0092
53.0700 0.0000
53.0800 0.0000
53.0900 0.0000
53.1000 0.0000
53.1100 0.0000
53.1200 0.0000
53.1300 0.0000
53.1400 0.5416
53.1500 0.3900
53.1600 0.0000
53.1700 0.0000
53.1800 0.0000
53.1900 0.0000
53.2000 0.0000
53.2100 1.2243
53.2200 0.7695
53.2300 0.0000
53.2400 0.0000
53.2500 0.0000
53.2600 0.0000
53.2700 0.0000
53.2800 0.0000
53.2900 0.0000
53.3000 0.0000
53.3100 0.0000
53.3200 0.0000
53.3300 0.0000
53.3400 0.0000
53.3500 0.0000
53.3600 0.0000
53.3700 0.0000
53.3800 0.0000
53.3900 0.0000
53.4000 0.0708
53.4100 1.9160
53.4200 0.0000
53.4300 0.0000
53.4400 0.0000
53.4500 1.9431
53.4600 0.6325
53.4700 0.4182
53.4800 0.0000
53.4900 0.0000
53.5000 0.0000
53.5100 0.0000
53.5200 0.0000
53.5300 0.0000
53.5400 1.0027
53.5500 0.0000
53.5600 1.0125
53.5700 0.0000
53.5800 0.0000
53.5900 0.0000
53.6000 0.0000
53.6100 0.9842
53.6200 1.9589
53.6300 0.0000
53.6400 0.0000
53.6500 0.0000
53.6600 0.0000
53.6700 0.0000
53.6800 0.0000
53.6900 0.0000
53.7000 0.0000
53.7100 0.0000
53.7200 0.0000
53.7300 0.0000
53.7400 0.9841
53.7500 0.0000
53.7600 0.0000
53.7700 1.0235
53.7800 0.0000
53.7900 0.6935
53.8000 0.2737
53.8100 1.0004
53.8200 2.0419
53.8300 0.0000
53.8400 0.0000
53.8500 0.0000
53.8600 0.3654
53.8700 0.6018
53.8800 1.0294
53.8900 0.0000
53.9000 0.0000
53.9100 0.0000
53.9200 1.0478
53.9300 0.0000
53.9400 0.0000
53.9500 0.0000
53.9600 0.0000
53.9700 0.0000
53.9800 0.0000
53.9900 0.6201
54.0000 1.4220
54.0100 0.0000
54.0200 1.0180
54.0300 0.0000
54.0400 1.0416
54.0500 0.1739
54.0600 0.8414
54.0700 0.0000
54.0800 1.0364
54.0900 0.0000
54.1000 0.0000
54.1100 0.0000
54.1200 0.0000
54.1300 0.0000
54.1400 0.0235
54.1500 1.2260
54.1600 0.9179
54.1700 0.3162
54.1800 0.7240
54.1900 0.5277
54.2000 2.4897
54.2100 0.6747
54.2200 0.3152
54.2300 0.0000
54.2400 1.9965
54.2500 1.0759
54.2600 0.0000
54.2700 1.9258
54.2800 0.0000
54.2900 0.0000
54.3000 0.0000
54.3100 0.0000
54.3200 0.0000
54.3300 0.0000
54.3400 0.0000
54.3500 0.0000
54.3600 1.0099
54.3700 0.0000
54.3800 0.0000
54.3900 0.0000
54.4000 0.0000
54.4100 0.0000
54.4200 0.0000
54.4300 1.9789
54.4400 0.0000
54.4500 0.0000
54.4600 0.0398
54.4700 0.9218
54.4800 0.0000
54.4900 0.3263
54.5000 0.6790
54.5100 1.1231
54.5200 1.0645
54.5300 0.0000
54.5400 0.8029
54.5500 0.2050
54.5600 0.9892
54.5700 0.0147
54.5800 0.0000
54.5900 0.0000
54.6000 1.3412
54.6100 0.6113
54.6200 0.0000
54.6300 0.6235
54.6400 0.3415
54.6500 0.0000
54.6600 0.0000
54.6700 0.0000
54.6800 2.0102
54.6900 0.9802
54.7000 1.0446
54.7100 0.0000
54.7200 0.0000
54.7300 0.9412
54.7400 0.0000
54.7500 0.0000
54.7600 0.0000
54.7700 0.9927
54.7800 0.0332
54.7900 0.0000
54.8000 0.0000
54.8100 0.0000
54.8200 0.0000
54.8300 0.9433
54.8400 0.6021
54.8500 0.3560
54.8600 0.0000
54.8700 0.0000
54.8800 0.0000
54.8900 0.0000
54.9000 0.0000
54.9100 0.0000
54.9200 0.0000
54.9300 0.0000
54.9400 0.0000
54.9500 0.9829
54.9600 0.0000
54.9700 0.0000
54.9800 0.0000
54.9900 0.0000
55.0000 0.0000
55.0100 0.0000
55.0200 0.0000
55.0300 0.0000
55.0400 0.0000
55.0500 0.6068
55.0600 0.3868
55.0700 1.8356
55.0800 0.1855
55.0900 0.0000
55.1000 0.0000
55.1100 0.0000
55.1200 0.0000
55.1300 0.0000
55.1400 0.0000
55.1500 0.0000
55.1600 1.0392
55.1700 0.0000
55.1800 0.0000
55.1900 0.0000
55.2000 1.9521
55.2100 0.0000
55.2200 0.0000
55.2300 0.3184
55.2400 0.7094
55.2500 0.0000
55.2600 0.0000
55.2700 0.0000
55.2800 0.7783
55.2900 1.0736
55.3000 0.1210
55.3100 0.0000
55.3200 0.0000
55.3300 0.9863
55.3400 0.0000
55.3500 0.0000
55.3600 0.0000
55.3700 0.9717
55.3800 0.9609
55.3900 0.0000
55.4000 1.9774
55.4100 0.0175
55.4200 1.9533
55.4300 0.1975
55.4400 1.0877
55.4500 1.0911
55.4600 1.5850
55.4700 0.9812
55.4800 0.0000
55.4900 0.0000
55.5000 0.0000
55.5100 0.0000
55.5200 0.0000
55.5300 0.0000
55.5400 1.0535
55.5500 0.0000
55.5600 0.0000
55.5700 0.0000
55.5800 2.7322
55.5900 0.3789
55.6000 2.0126
55.6100 0.0000
55.6200 4.0037
55.6300 0.0998
55.6400 0.9646
55.6500 0.5642
55.6600 1.4921
55.6700 1.3557
55.6800 1.5714
55.6900 0.0000
55.7000 0.0000
55.7100 0.8387
55.7200 0.1589
55.7300 1.1346
55.7400 0.1228
55.7500 1.8621
55.7600 0.9978
55.7700 0.0000
55.7800 0.0000
55.7900 1.0305
55.8000 1.6916
55.8100 0.2943
55.8200 0.0000
55.8300 0.0000
55.8400 2.0223
55.8500 0.0000
55.8600 0.2487
55.8700 0.7203
55.8800 0.4276
55.8900 1.0540
55.9000 1.7066
55.9100 0.7278
55.9200 0.0000
55.9300 0.0000
55.9400 0.0111
55.9500 0.9267
55.9600 0.9504
55.9700 0.0000
55.9800 0.0000
55.9900 0.0000
56.0000 0.6010
56.0100 0.4385
56.0200 1.8265
56.0300 0.2318
56.0400 0.0000
56.0500 0.0498
56.0600 1.9095
56.0700 0.0000
56.0800 0.0000
56.0900 0.4271
56.1000 1.5837
56.1100 0.0000
56.1200 0.0000
56.1300 0.0000
56.1400 0.0000
56.1500 0.0000
56.1600 0.1809
56.1700 1.8643
56.1800 3.1069
56.1900 0.9459
56.2000 0.0000
56.2100 0.0000
56.2200 0.0000
56.2300 0.9702
56.2400 0.0000
56.2500 0.9372
56.2600 0.0619
56.2700 0.1306
56.2800 1.8600
56.2900 1.3243
56.3000 0.6964
56.3100 1.9946
56.3200 0.6363
56.3300 1.4146
56.3400 0.9589
56.3500 0.0000
56.3600 0.9993
56.3700 1.0186
56.3800 0.0000
56.3900 0.0000
56.4000 0.0000
56.4100 0.0000
56.4200 0.0000
56.4300 0.0000
56.4400 0.0000
56.4500 0.0000
56.4600 0.9861
56.4700 0.0000
56.4800 0.0000
56.4900 0.2171
56.5000 0.8500
56.5100 0.0000
56.5200 0.0000
56.5300 0.0000
56.5400 0.0000
56.5500 1.4921
56.5600 0.4461
56.5700 0.0000
56.5800 0.0000
56.5900 1.9153
56.6000 0.0000
56.6100 0.0000
56.6200 0.4080
56.6300 1.4902
56.6400 0.0000
56.6500 0.0000
56.6600 0.0000
56.6700 0.0000
56.6800 0.0000
56.6900 0.0984
56.7000 1.1677
56.7100 0.8304
56.7200 0.0000
56.7300 0.9036
56.7400 2.5384
56.7500 0.4178
56.7600 0.0000
56.7700 0.0000
56.7800 0.0000
56.7900 0.0000
56.8000 0.0000
56.8100 0.0000
56.8200 0.0000
56.8300 0.4427
56.8400 0.6295
56.8500 0.9464
56.8600 0.0000
56.8700 0.0000
56.8800 0.8157
56.8900 0.1061
56.9000 2.0579
56.9100 0.0000
56.9200 0.2748
56.9300 0.7724
56.9400 0.9548
56.9500 0.0000
56.9600 0.0000
56.9700 0.9832
56.9800 0.0000
56.9900 0.9352
57.0000 1.1686
57.0100 1.0077
57.0200 0.0000
57.0300 0.0000
57.0400 1.3518
57.0500 0.6012
57.0600 0.0000
57.0700 0.0000
57.0800 0.0000
57.0900 0.9378
57.1000 0.0000
57.1100 0.0000
57.1200 0.0000
57.1300 0.2521
57.1400 0.7780
57.1500 0.4478
57.1600 0.5852
57.1700 1.2165
57.1800 0.7384
57.1900 0.0000
57.2000 0.8889
57.2100 0.0928
57.2200 0.0000
57.2300 0.0000
57.2400 0.0000
57.2500 0.0000
57.2600 0.9290
57.2700 1.0399
57.2800 0.0000
57.2900 0.0000
57.3000 0.8586
57.3100 0.1522
57.3200 3.0148
57.3300 0.0000
57.3400 0.0000
57.3500 0.0000
57.3600 0.0000
57.3700 0.0000
57.3800 1.5436
57.3900 1.1312
57.4000 0.3221
57.4100 0.0000
57.4200 0.0000
57.4300 0.0000
57.4400 0.0000
57.4500 0.0000
57.4600 0.9793
57.4700 0.0000
57.4800 0.0000
57.4900 0.0000
57.5000 0.0000
57.5100 0.9823
57.5200 0.0000
57.5300 3.0294
57.5400 0.0000
57.5500 0.0000
57.5600 0.2928
57.5700 0.6714
57.5800 0.0000
57.5900 0.0000
57.6000 0.0000
57.6100 1.5867
57.6200 1.3664
57.6300 0.1355
57.6400 1.0326
57.6500 1.0878
57.6600 0.8427
57.6700 0.0000
57.6800 1.0363
57.6900 0.0000
57.7000 0.9472
57.7100 0.0000
57.7200 0.0000
57.7300 0.0000
57.7400 0.0000
57.7500 2.0891
57.7600 0.8976
57.7700 0.0000
57.7800 0.3742
57.7900 2.0591
57.8000 0.5143
57.8100 0.6571
57.8200 0.3332
57.8300 0.0000
57.8400 0.0000
57.8500 0.0431
57.8600 1.0044
57.8700 0.0000
57.8800 0.3205
57.8900 2.1902
57.9000 0.5578
57.9100 0.0000
57.9200 0.0000
57.9300 1.5293
57.9400 0.3913
57.9500 0.0000
57.9600 0.0000
57.9700 0.9973
57.9800 0.0000
57.9900 0.0000
58.0000 0.4413
58.0100 0.5243
58.0200 0.0000
58.0300 0.7212
58.0400 0.2531
58.0500 0.9356
58.0600 0.0715
58.0700 0.9643
58.0800 0.9932
58.0900 0.0000
58.1000 0.1419
58.1100 0.4707
58.1200 0.4795
58.1300 0.0000
58.1400 1.1356
58.1500 0.1217
58.1600 1.1057
58.1700 1.1386
58.1800 0.0000
58.1900 0.4191
58.2000 1.1367
58.2100 0.7020
58.2200 0.0000
58.2300 0.0000
58.2400 2.1747
58.2500 0.0000
58.2600 0.0000
58.2700 2.0742
58.2800 0.0000
58.2900 0.0000
58.3000 0.0000
58.3100 0.0000
58.3200 0.4676
58.3300 1.0579
58.3400 1.0573
58.3500 1.8414
58.3600 0.8858
58.3700 0.1499
58.3800 0.0432
58.3900 0.9392
58.4000 2.0192
58.4100 0.0000
58.4200 0.4141
58.4300 1.1371
58.4400 0.5337
58.4500 0.0000
58.4600 0.0000
58.4700 0.0000
58.4800 0.0000
58.4900 0.0000
58.5000 0.0000
58.5100 0.9502
58.5200 0.9452
58.5300 0.4543
58.5400 0.5335
58.5500 0.9789
58.5600 0.0000
58.5700 0.0000
58.5800 0.0000
58.5900 0.0000
58.6000 0.0000
58.6100 0.9880
58.6200 0.0000
58.6300 0.8356
58.6400 1.2334
58.6500 1.1936
58.6600 0.8203
58.6700 0.0000
58.6800 0.0000
58.6900 1.9923
58.7000 0.0000
58.7100 1.0345
58.7200 0.0000
58.7300 0.7011
58.7400 1.7857
58.7500 0.5942
58.7600 0.0000
58.7700 0.0000
58.7800 0.0000
58.7900 0.0000
58.8000 0.0086
58.8100 0.9964
58.8200 0.0000
58.8300 0.0000
58.8400 0.0000
58.8500 1.0256
58.8600 1.5538
58.8700 1.0742
58.8800 1.0813
58.8900 0.2363
58.9000 1.9253
58.9100 0.0960
58.9200 0.0000
58.9300 0.2373
58.9400 1.7469
58.9500 1.0392
58.9600 1.0244
58.9700 0.0000
58.9800 0.0000
58.9900 1.8053
59.0000 0.1957
59.0100 0.0000
59.0200 1.9774
59.0300 0.9248
59.0400 0.0000
59.0500 0.0000
59.0600 0.0000
59.0700 0.9605
59.0800 0.0000
59.0900 0.6553
59.1000 0.0000
59.1100 0.3276
59.1200 0.0000
59.1300 0.0000
59.1400 0.0000
59.1500 0.3262
59.1600 0.7181
59.1700 0.9788
59.1800 0.9742
59.1900 0.0000
59.2000 0.0000
59.2100 0.8977
59.2200 0.1239
59.2300 0.9308
59.2400 0.0000
59.2500 0.0000
59.2600 1.0252
59.2700 0.0000
59.2800 0.0000
59.2900 0.0000
59.3000 0.0000
59.3100 1.0368
59.3200 0.0000
59.3300 0.0000
59.3400 0.0000
59.3500 0.0000
59.3600 0.0000
59.3700 0.0000
59.3800 0.0000
59.3900 0.0000
59.4000 0.0000
59.4100 0.0000
59.4200 0.9967
59.4300 0.0000
59.4400 1.0359
59.4500 0.0000
59.4600 0.0000
59.4700 0.0000
59.4800 0.4401
59.4900 0.5897
59.5000 0.6001
59.5100 0.3738
59.5200 0.0000
59.5300 0.0000
59.5400 0.0000
59.5500 0.0000
59.5600 0.0000
59.5700 1.9607
59.5800 0.0000
59.5900 0.0000
59.6000 0.0000
59.6100 0.0000
59.6200 0.0000
59.6300 0.0000
59.6400 1.0643
59.6500 0.0000
59.6600 0.0000
59.6700 0.0000
59.6800 0.0000
59.6900 0.0000
59.7000 0.0000
59.7100 0.0000
59.7200 0.0000
59.7300 0.7984
59.7400 0.2157
59.7500 1.0937
59.7600 1.0978
59.7700 0.8797
59.7800 0.9545
59.7900 0.3727
59.8000 1.6932
59.8100 0.0000
59.8200 0.0000
59.8300 0.0000
59.8400 0.0000
59.8500 0.0000
59.8600 0.9880
59.8700 0.0000
59.8800 0.0000
59.8900 0.0000
59.9000 0.0000
59.9100 0.0000
59.9200 1.1296
59.9300 0.1362
59.9400 1.2537
59.9500 0.3755
59.9600 0.0000
59.9700 0.0000
59.9800 0.0000
59.9900 0.0000
60.0000 0.9719
60.0100 0.0000
60.0200 0.0000
60.0300 0.0000
60.0400 0.0000
60.0500 1.0103
60.0600 0.0000
60.0700 0.0000
60.0800 3.1126
60.0900 0.0000
60.1000 0.0000
60.1100 0.0000
60.1200 0.0000
60.1300 0.9534
60.1400 0.6639
60.1500 0.3459
60.1600 0.0000
60.1700 0.9743
60.1800 1.0598
60.1900 0.0000
60.2000 0.0000
60.2100 0.0000
60.2200 1.0183
60.2300 0.0000
60.2400 0.5910
60.2500 1.3984
60.2600 0.0000
60.2700 0.0000
60.2800 1.1182
60.2900 0.0240
60.3000 0.0000
60.3100 0.0000
60.3200 0.0000
60.3300 0.0000
60.3400 0.5695
60.3500 0.4748
60.3600 0.7468
60.3700 0.2705
60.3800 0.9516
60.3900 0.0000
60.4000 0.0000
60.4100 0.0000
60.4200 0.0000
60.4300 0.0000
60.4400 0.4917
60.4500 0.5133
60.4600 0.0000
60.4700 0.0000
60.4800 0.0000
60.4900 0.0000
60.5000 0.9832
60.5100 0.0000
60.5200 0.0000
60.5300 0.9874
60.5400 0.4615
60.5500 0.6038
60.5600 0.0000
60.5700 0.0000
60.5800 0.0000
60.5900 0.0000
60.6000 0.0000
60.6100 0.0000
60.6200 0.0000
60.6300 0.0000
60.6400 0.0000
60.6500 0.0000
60.6600 0.5391
60.6700 1.3755
60.6800 0.0000
60.6900 0.8174
60.7000 0.1453
60.7100 0.0393
60.7200 0.9981
60.7300 0.0000
60.7400 0.9776
60.7500 0.0000
60.7600 0.0000
60.7700 0.0000
60.7800 0.0000
60.7900 0.0000
60.8000 0.0000
60.8100 0.9718
60.8200 0.0000
60.8300 0.9802
60.8400 0.2712
60.8500 0.7520
60.8600 0.0000
60.8700 0.0000
60.8800 0.0000
60.8900 0.0000
60.9000 0.0000
60.9100 0.9552
60.9200 1.9785
60.9300 1.9883
60.9400 0.0000
60.9500 0.0000
60.9600 0.0000
60.9700 0.9952
60.9800 0.0000
60.9900 0.0000
61.0000 0.0000
61.0100 0.0000
61.0200 0.0000
61.0300 1.0104
61.0400 0.1512
61.0500 0.8377
61.0600 0.9956
61.0700 0.9419
61.0800 1.2179
61.0900 0.0000
61.1000 0.0000
61.1100 0.0000
61.1200 0.0000
61.1300 0.0000
61.1400 0.0000
61.1500 0.0000
61.1600 0.0000
61.1700 0.0000
61.1800 0.0000
61.1900 0.0000
61.2000 0.6587
61.2100 1.1348
61.2200 2.2824
61.2300 0.0000
61.2400 0.0000
61.2500 0.0000
61.2600 0.0000
61.2700 0.3254
61.2800 0.6790
61.2900 0.0000
61.3000 0.0000
61.3100 0.0000
61.3200 0.7915
61.3300 0.2029
61.3400 0.9774
61.3500 0.9713
61.3600 0.0000
61.3700 0.0000
61.3800 0.0000
61.3900 0.4583
61.4000 0.5451
61.4100 0.6613
61.4200 2.2808
61.4300 0.0000
61.4400 0.9750
61.4500 0.0226
61.4600 0.9560
61.4700 0.0000
61.4800 0.0000
61.4900 0.4088
61.5000 0.6114
61.5100 0.0000
61.5200 0.9808
61.5300 0.0000
61.5400 0.0000
61.5500 0.0000
61.5600 0.0000
61.5700 0.0000
61.5800 0.0000
61.5900 2.4174
61.6000 0.6604
61.6100 0.9399
61.6200 0.0000
61.6300 1.0304
61.6400 0.9618
61.6500 1.0565
61.6600 0.0054
61.6700 0.9938
61.6800 0.9697
61.6900 0.2895
61.7000 0.7137
61.7100 0.0000
61.7200 0.5327
61.7300 0.3990
61.7400 0.0000
61.7500 0.0000
61.7600 0.0000
61.7700 0.0000
61.7800 0.1358
61.7900 2.1744
61.8000 1.7182
61.8100 0.4048
61.8200 0.5561
61.8300 0.0000
61.8400 1.0489
61.8500 0.0000
61.8600 0.0000
61.8700 0.0000
61.8800 0.0000
61.8900 0.0000
61.9000 0.0000
61.9100 0.9793
61.9200 1.0059
61.9300 1.1513
61.9400 0.0000
61.9500 0.7954
61.9600 0.2754
61.9700 0.0000
61.9800 1.0051
61.9900 0.0000
62.0000 0.0000
62.0100 0.0000
62.0200 0.0000
62.0300 0.4783
62.0400 1.4624
62.0500 0.0000
62.0600 0.0000
62.0700 0.0000
62.0800 0.0000
62.0900 0.0000
62.1000 0.1598
62.1100 0.8469
62.1200 0.0000
62.1300 0.0000
62.1400 0.9927
62.1500 0.0000
62.1600 0.0000
62.1700 0.0000
62.1800 0.0000
62.1900 0.0000
62.2000 0.0000
62.2100 0.0000
62.2200 0.0000
62.2300 0.0000
62.2400 0.0000
62.2500 1.5185
62.2600 0.4231
62.2700 1.5001
62.2800 0.4649
62.2900 0.0000
62.3000 1.9435
62.3100 1.0212
62.3200 1.2994
62.3300 0.7237
62.3400 0.0000
62.3500 0.9596
62.3600 0.0000
62.3700 0.6960
62.3800 0.2879
62.3900 0.0000
62.4000 1.0012
62.4100 0.9925
62.4200 0.0000
62.4300 0.0000
62.4400 0.0000
62.4500 0.0000
62.4600 0.5352
62.4700 0.4258
62.4800 0.0000
62.4900 0.0000
62.5000 0.9889
62.5100 0.0570
62.5200 1.9146
62.5300 1.0096
62.5400 0.0000
62.5500 0.0000
62.5600 0.0000
62.5700 0.0000
62.5800 1.4199
62.5900 0.6390
62.6000 0.8329
62.6100 0.1153
62.6200 0.9905
62.6300 0.0000
62.6400 0.0000
62.6500 0.0000
62.6600 0.4323
62.6700 0.5395
62.6800 0.0000
62.6900 0.9408
62.7000 0.0000
62.7100 2.7877
62.7200 0.1654
62.7300 0.1034
62.7400 1.8171
62.7500 0.0000
62.7600 0.0000
62.7700 0.0000
62.7800 0.9797
62.7900 0.0000
62.8000 1.0244
62.8100 0.0000
62.8200 0.0000
62.8300 1.0047
62.8400 0.0000
62.8500 0.0000
62.8600 0.0000
62.8700 0.0000
62.8800 0.4966
62.8900 0.4557
62.9000 0.7014
62.9100 1.8689
62.9200 0.3842
62.9300 0.0000
62.9400 0.0000
62.9500 0.0000
62.9600 0.0000
62.9700 0.3853
62.9800 0.6532
62.9900 0.0000
63.0000 0.9599
63.0100 0.0000
63.0200 0.0000
63.0300 0.9536
63.0400 1.0565
63.0500 1.9545
63.0600 0.0000
63.0700 0.3069
63.0800 1.7048
63.0900 1.0107
63.1000 0.0000
63.1100 0.9640
63.1200 0.0000
63.1300 0.0000
63.1400 0.0000
63.1500 1.0173
63.1600 0.1618
63.1700 0.8215
63.1800 0.3591
63.1900 1.6783
63.2000 0.0000
63.2100 0.6353
63.2200 0.3628
63.2300 1.9997
63.2400 0.0000
63.2500 2.0293
63.2600 2.0297
63.2700 0.0000
63.2800 0.9971
63.2900 0.0000
63.3000 0.0000
63.3100 0.0000
63.3200 0.0000
63.3300 0.0000
63.3400 0.0000
63.3500 0.0000
63.3600 0.9647
63.3700 0.1503
63.3800 0.8737
63.3900 0.0000
63.4000 0.8678
63.4100 1.1505
63.4200 0.0000
63.4300 0.0000
63.4400 0.0000
63.4500 0.8920
63.4600 0.0970
63.4700 0.1897
63.4800 2.8530
63.4900 0.9911
63.5000 2.0026
63.5100 0.4564
63.5200 0.5182
63.5300 0.0000
63.5400 0.0000
63.5500 1.0047
63.5600 0.0000
63.5700 0.0000
63.5800 0.0000
63.5900 1.0122
63.6000 0.3055
63.6100 0.6557
63.6200 0.0000
63.6300 0.0000
63.6400 0.0000
63.6500 0.7675
63.6600 0.2042
63.6700 0.9871
63.6800 0.0000
63.6900 0.0000
63.7000 0.9785
63.7100 0.0000
63.7200 0.4733
63.7300 0.5771
63.7400 1.6620
63.7500 0.3687
63.7600 0.0000
63.7700 0.0000
63.7800 2.0384
63.7900 0.1085
63.8000 1.8697
63.8100 2.0803
63.8200 0.0000
63.8300 1.0584
63.8400 1.0051
63.8500 0.0000
63.8600 1.9736
63.8700 0.0000
63.8800 0.0000
63.8900 0.9650
63.9000 0.0000
63.9100 0.0000
63.9200 0.0000
63.9300 1.0008
63.9400 0.0000
63.9500 0.6249
63.9600 1.3838
63.9700 0.0000
63.9800 0.0000
63.9900 0.9594
64.0000 1.1621
64.0100 1.1698
64.0200 0.9020
64.0300 0.0000
64.0400 0.0000
64.0500 0.0000
64.0600 0.0000
64.0700 0.7283
64.0800 0.2371
64.0900 1.9640
64.1000 2.0965
64.1100 0.0000
64.1200 0.0000
64.1300 0.3145
64.1400 1.0630
64.1500 2.0556
64.1600 0.4667
64.1700 0.9862
64.1800 0.9721
64.1900 0.0000
64.2000 1.9003
64.2100 1.0628
64.2200 0.0000
64.2300 0.0000
64.2400 0.0000
64.2500 0.9620
64.2600 0.0000
64.2700 2.2712
64.2800 1.4257
64.2900 1.2855
64.3000 0.9765
64.3100 3.0006
64.3200 0.9562
64.3300 1.0065
64.3400 0.0000
64.3500 0.0000
64.3600 0.0000
64.3700 0.5816
64.3800 1.3950
64.3900 0.8154
64.4000 0.2367
64.4100 0.0000
64.4200 2.0744
64.4300 0.9512
64.4400 0.0000
64.4500 1.0342
64.4600 0.9832
64.4700 0.0000
64.4800 0.0000
64.4900 0.0000
64.5000 0.0000
64.5100 0.0000
64.5200 0.0043
64.5300 1.9818
64.5400 0.3766
64.5500 1.5957
64.5600 0.0000
64.5700 0.4837
64.5800 2.0596
64.5900 1.4129
64.6000 0.7998
64.6100 1.0831
64.6200 0.1440
64.6300 1.0032
64.6400 1.9499
64.6500 0.0000
64.6600 0.3501
64.6700 2.7327
64.6800 0.0000
64.6900 0.0000
64.7000 0.0000
64.7100 0.0000
64.7200 0.9799
64.7300 0.0000
64.7400 0.0000
64.7500 0.0000
64.7600 0.0000
64.7700 0.0000
64.7800 0.0000
64.7900 0.0000
64.8000 0.0000
64.8100 0.0000
64.8200 0.0000
64.8300 0.0000
64.8400 0.9905
64.8500 1.0756
64.8600 0.8843
64.8700 0.0000
64.8800 0.3954
64.8900 2.0485
64.9000 0.5074
64.9100 0.0000
64.9200 0.9895
64.9300 0.8991
64.9400 0.0000
64.9500 0.0000
64.9600 1.0434
64.9700 0.0000
64.9800 0.3314
64.9900 0.6311
65.0000 0.5399
65.0100 1.4580
65.0200 0.0000
65.0300 0.6248
65.0400 1.0012
65.0500 0.3222
65.0600 3.0391
65.0700 0.9204
65.0800 0.0000
65.0900 0.0000
65.1000 0.0000
65.1100 0.0000
65.1200 0.0000
65.1300 0.0000
65.1400 0.8517
65.1500 0.1449
65.1600 0.0000
65.1700 0.9764
65.1800 0.0000
65.1900 0.9904
65.2000 0.0000
65.2100 0.0000
65.2200 1.0145
65.2300 0.0000
65.2400 0.8195
65.2500 2.2384
65.2600 2.0057
65.2700 1.0368
65.2800 0.1722
65.2900 1.0910
65.3000 0.7694
65.3100 0.4714
65.3200 0.5549
65.3300 0.0000
65.3400 0.0000
65.3500 0.0000
65.3600 0.0000
65.3700 1.0127
65.3800 0.0000
65.3900 0.2068
65.4000 3.7984
65.4100 0.4246
65.4200 2.1644
65.4300 2.1820
65.4400 2.0898
65.4500 2.9202
65.4600 2.2963
65.4700 1.1429
65.4800 0.0671
65.4900 3.1887
65.5000 1.0545
65.5100 1.7205
65.5200 1.0098
65.5300 2.0863
65.5400 0.9717
65.5500 0.7623
65.5600 0.2895
65.5700 0.8707
65.5800 2.0713
65.5900 2.0547
65.6000 3.1308
65.6100 2.7888
65.6200 0.0000
65.6300 0.0000
65.6400 0.5677
65.6500 2.0599
65.6600 1.0580
65.6700 0.2279
65.6800 0.9158
65.6900 2.0706
65.7000 0.9340
65.7100 0.2305
65.7200 2.0337
65.7300 1.1033
65.7400 0.5697
65.7500 0.0000
65.7600 0.0000
65.7700 0.0000
65.7800 2.7307
65.7900 1.1896
65.8000 0.9999
65.8100 0.1831
65.8200 0.8399
65.8300 0.0000
65.8400 0.4712
65.8500 1.5454
65.8600 0.0000
65.8700 0.0000
65.8800 0.0000
65.8900 0.0000
65.9000 1.0235
65.9100 0.9168
65.9200 0.4407
65.9300 2.5879
65.9400 0.0000
65.9500 0.0000
65.9600 1.0497
65.9700 0.0000
65.9800 0.9995
65.9900 0.0000
66.0000 0.0000
66.0100 0.9874
66.0200 0.0000
66.0300 0.0000
66.0400 0.0000
66.0500 0.0000
66.0600 0.0000
66.0700 0.0000
66.0800 0.0000
66.0900 0.0000
66.1000 0.9202
66.1100 1.0812
66.1200 0.0000
66.1300 0.0000
66.1400 0.0423
66.1500 1.0683
66.1600 0.4866
66.1700 0.5212
66.1800 0.0000
66.1900 0.0000
66.2000 0.0000
66.2100 1.9733
66.2200 1.0813
66.2300 0.0000
66.2400 0.0000
66.2500 0.0000
66.2600 0.4183
66.2700 1.0698
66.2800 0.4668
66.2900 0.9454
66.3000 2.5948
66.3100 0.3818
66.3200 0.9660
66.3300 2.0412
66.3400 0.8563
66.3500 0.0000
66.3600 1.0570
66.3700 0.0000
66.3800 0.0000
66.3900 0.0000
66.4000 0.7435
66.4100 0.2501
66.4200 0.0000
66.4300 1.0439
66.4400 0.9578
66.4500 0.0000
66.4600 0.0000
66.4700 0.4263
66.4800 0.6159
66.4900 0.6557
66.5000 0.4411
66.5100 0.0000
66.5200 1.1511
66.5300 0.0000
66.5400 0.3182
66.5500 0.0000
66.5600 0.6363
66.5700 0.9950
66.5800 0.0000
66.5900 0.0000
66.6000 0.0000
66.6100 0.9575
66.6200 0.8215
66.6300 0.1743
66.6400 0.0000
66.6500 0.0000
66.6600 2.1297
66.6700 0.8016
66.6800 1.9231
66.6900 0.0000
66.7000 0.9805
66.7100 0.0000
66.7200 0.0000
66.7300 0.8715
66.7400 2.1650
66.7500 1.0107
66.7600 0.0000
66.7700 0.0000
66.7800 0.0000
66.7900 0.0000
66.8000 0.0000
66.8100 0.9773
66.8200 0.0000
66.8300 1.6902
66.8400 0.4036
66.8500 0.9151
66.8600 0.0000
66.8700 0.9946
66.8800 0.9644
66.8900 0.7682
66.9000 1.2880
66.9100 0.0000
66.9200 0.0000
66.9300 0.7456
66.9400 1.0528
66.9500 0.1472
66.9600 0.9998
66.9700 0.0000
66.9800 0.0000
66.9900 1.2869
67.0000 0.6470
67.0100 0.9776
67.0200 0.0000
67.0300 1.6665
67.0400 0.2949
67.0500 1.0303
67.0600 0.9482
67.0700 2.0618
67.0800 1.1187
67.0900 0.8744
67.1000 0.0000
67.1100 1.9624
67.1200 0.5712
67.1300 0.4775
67.1400 0.9619
67.1500 0.0000
67.1600 1.0652
67.1700 1.0401
67.1800 1.9508
67.1900 0.2175
67.2000 0.8410
67.2100 0.4130
67.2200 0.6346
67.2300 0.0000
67.2400 0.0000
67.2500 0.0000
67.2600 0.8483
67.2700 0.1310
67.2800 0.0000
67.2900 0.0000
67.3000 0.2470
67.3100 0.7663
67.3200 0.0000
67.3300 1.9790
67.3400 1.9093
67.3500 0.7328
67.3600 1.0702
67.3700 1.1018
67.3800 0.0970
67.3900 0.9740
67.4000 0.0000
67.4100 0.0000
67.4200 0.0000
67.4300 0.4530
67.4400 0.5090
67.4500 0.6533
67.4600 0.3370
67.4700 0.9671
67.4800 0.0000
67.4900 0.0000
67.5000 0.1279
67.5100 0.8435
67.5200 0.3605
67.5300 1.1748
67.5400 1.5637
67.5500 0.0000
67.5600 0.0000
67.5700 0.9789
67.5800 0.8631
67.5900 0.1102
67.6000 0.0793
67.6100 0.9700
67.6200 0.0000
67.6300 0.0000
67.6400 0.0000
67.6500 0.0000
67.6600 0.0000
67.6700 3.4026
67.6800 0.5209
67.6900 0.0000
67.7000 0.0000
67.7100 0.1115
67.7200 1.0859
67.7300 0.8309
67.7400 0.0000
67.7500 0.4873
67.7600 0.5041
67.7700 1.3451
67.7800 0.6321
67.7900 0.0000
67.8000 0.9914
67.8100 1.3236
67.8200 2.9514
67.8300 2.1222
67.8400 0.7956
67.8500 1.2713
67.8600 2.1545
67.8700 1.6573
67.8800 0.7271
67.8900 1.7737
67.9000 0.4078
67.9100 3.9610
67.9200 1.5462
67.9300 2.0950
67.9400 1.2365
67.9500 0.9859
67.9600 0.0000
67.9700 0.5688
67.9800 2.3867
67.9900 2.7956
68.0000 1.2222
68.0100 2.0627
68.0200 0.9841
68.0300 0.9626
68.0400 1.2013
68.0500 1.4675
68.0600 1.7370
68.0700 2.6108
68.0800 0.9565
68.0900 0.6846
68.1000 0.2921
68.1100 1.0932
68.1200 0.0135
68.1300 0.0000
68.1400 0.0000
68.1500 0.0000
68.1600 0.0000
68.1700 0.4422
68.1800 1.0574
68.1900 0.4329
68.2000 0.0000
68.2100 0.0000
68.2200 0.0000
68.2300 0.0000
68.2400 0.9911
68.2500 0.0000
68.2600 0.0000
68.2700 0.4062
68.2800 0.6092
68.2900 0.0000
68.3000 1.7067
68.3100 0.3084
68.3200 0.0000
68.3300 0.0000
68.3400 0.0000
68.3500 0.0000
68.3600 0.9909
68.3700 0.0000
68.3800 0.0000
68.3900 0.3539
68.4000 1.3156
68.4100 0.2397
68.4200 1.0710
68.4300 0.0000
68.4400 0.3204
68.4500 2.1009
68.4600 0.5688
68.4700 0.9895
68.4800 0.0000
68.4900 1.4757
68.5000 0.5241
68.5100 0.9535
68.5200 0.0000
68.5300 0.0000
68.5400 1.9482
68.5500 0.0978
68.5600 1.1226
68.5700 2.8318
68.5800 1.3562
68.5900 1.6662
68.6000 0.0000
68.6100 0.0000
68.6200 0.9273
68.6300 0.0000
68.6400 0.8767
68.6500 0.1055
68.6600 0.9952
68.6700 0.1664
68.6800 1.8100
68.6900 0.0000
68.7000 0.0000
68.7100 0.0000
68.7200 0.0000
68.7300 0.0000
68.7400 0.0000
68.7500 1.0038
68.7600 0.9290
68.7700 0.0000
68.7800 0.0000
68.7900 0.0000
68.8000 0.0000
68.8100 0.5219
68.8200 0.5275
68.8300 0.0000
68.8400 3.0570
68.8500 0.0000
68.8600 0.0000
68.8700 0.9876
68.8800 0.1590
68.8900 1.1260
68.9000 2.1179
68.9100 0.6355
68.9200 0.9784
68.9300 1.6600
68.9400 1.1337
68.9500 0.2873
68.9600 0.0000
68.9700 0.0000
68.9800 0.0000
68.9900 0.0000
69.0000 0.9936
69.0100 0.0000
69.0200 0.0000
69.0300 0.0000
69.0400 0.0000
69.0500 0.9806
69.0600 0.8316
69.0700 2.1020
69.0800 3.0947
69.0900 1.0397
69.1000 0.0000
69.1100 0.3413
69.1200 0.6957
69.1300 0.4929
69.1400 0.4587
69.1500 0.0000
69.1600 0.7862
69.1700 1.0875
69.1800 0.1041
69.1900 0.0000
69.2000 0.0000
69.2100 0.0000
69.2200 0.0000
69.2300 1.4044
69.2400 0.5235
69.2500 0.6194
69.2600 0.3325
69.2700 0.0000
69.2800 0.0000
69.2900 0.0000
69.3000 0.0000
69.3100 1.0274
69.3200 0.0000
69.3300 0.0000
69.3400 0.0000
69.3500 0.9778
69.3600 0.9757
69.3700 0.0000
69.3800 1.9464
69.3900 0.0000
69.4000 1.0509
69.4100 0.9304
69.4200 0.0000
69.4300 0.0000
69.4400 0.0000
69.4500 0.0000
69.4600 0.6058
69.4700 0.3513
69.4800 0.0000
69.4900 0.8717
69.5000 0.0900
69.5100 0.9617
69.5200 0.0000
69.5300 0.0000
69.5400 0.3633
69.5500 1.0420
69.5600 0.5033
69.5700 0.6665
69.5800 0.3264
69.5900 0.0000
69.6000 0.0000
69.6100 2.9548
69.6200 0.0000
69.6300 0.0000
69.6400 0.9518
69.6500 0.0000
69.6600 0.9777
69.6700 0.6221
69.6800 0.3891
69.6900 0.0000
69.7000 0.0000
69.7100 2.0832
69.7200 1.0442
69.7300 0.8779
69.7400 0.0000
69.7500 0.0000
69.7600 0.4584
69.7700 1.4539
69.7800 0.0000
69.7900 0.6998
69.8000 1.0644
69.8100 1.0376
69.8200 0.0596
69.8300 0.0000
69.8400 0.0000
69.8500 0.0000
69.8600 0.0000
69.8700 0.5133
69.8800 1.5182
69.8900 0.0000
69.9000 0.0000
69.9100 0.8846
69.9200 0.1198
69.9300 0.0000
69.9400 0.1797
69.9500 0.9166
69.9600 0.0000
69.9700 0.4259
69.9800 0.5267
69.9900 0.0000
70.0000 0.7551
70.0100 0.2789
70.0200 1.8858
70.0300 1.1692
70.0400 0.0000
70.0500 1.0154
70.0600 0.0000
70.0700 0.0000
70.0800 1.4225
70.0900 0.4936
70.1000 0.0000
70.1100 0.0000
70.1200 0.0000
70.1300 0.9919
70.1400 0.9940
70.1500 0.0000
70.1600 1.0703
70.1700 0.0000
70.1800 0.0000
70.1900 0.0000
70.2000 0.0000
70.2100 0.0000
70.2200 0.0000
70.2300 1.0094
70.2400 0.0000
70.2500 1.0270
70.2600 0.0000
70.2700 0.0000
70.2800 0.0000
70.2900 0.0000
70.3000 0.0000
70.3100 1.1249
70.3200 2.5825
70.3300 3.4088
70.3400 0.1606
70.3500 0.0000
70.3600 0.0000
70.3700 0.0000
70.3800 1.4248
70.3900 0.6348
70.4000 2.9954
70.4100 0.0000
70.4200 0.9753
70.4300 0.8290
70.4400 2.0866
70.4500 0.1241
70.4600 0.0000
70.4700 0.0000
70.4800 0.0000
70.4900 0.0000
70.5000 0.0000
70.5100 0.0000
70.5200 0.0000
70.5300 0.8188
70.5400 0.2980
70.5500 0.0000
70.5600 0.0000
70.5700 0.0000
70.5800 0.0000
70.5900 0.3059
70.6000 1.5537
70.6100 1.7794
70.6200 2.0996
70.6300 0.4069
70.6400 2.7935
70.6500 1.0858
70.6600 0.1322
70.6700 0.9967
70.6800 0.0000
70.6900 1.0491
70.7000 0.0000
70.7100 0.0000
70.7200 0.5168
70.7300 2.4819
70.7400 1.3519
70.7500 0.2791
70.7600 0.3251
70.7700 0.0000
70.7800 0.0000
70.7900 0.0000
70.8000 0.0000
70.8100 0.3561
70.8200 1.0568
70.8300 0.5246
70.8400 1.6859
70.8500 1.3823
70.8600 0.9620
70.8700 0.9873
70.8800 0.0000
70.8900 0.9557
70.9000 0.0000
70.9100 0.0000
70.9200 0.0000
70.9300 0.1320
70.9400 0.0000
70.9500 1.6352
70.9600 0.3080
70.9700 0.9021
70.9800 0.1155
70.9900 1.9723
71.0000 0.1594
71.0100 0.7798
71.0200 0.0000
71.0300 0.9922
71.0400 0.5909
71.0500 0.4888
71.0600 0.0000
71.0700 0.0000
71.0800 1.0176
71.0900 0.0185
71.1000 0.9430
71.1100 0.0000
71.1200 0.0000
71.1300 0.3951
71.1400 0.6006
71.1500 1.2116
71.1600 0.8574
71.1700 0.7526
71.1800 1.1394
71.1900 0.1390
71.2000 1.1128
71.2100 2.8369
71.2200 0.0000
71.2300 0.3280
71.2400 0.6346
71.2500 0.9879
71.2600 2.0842
71.2700 0.0000
71.2800 0.9702
71.2900 1.7087
71.3000 0.1749
71.3100 0.0906
71.3200 0.8539
71.3300 1.2429
71.3400 1.8174
71.3500 0.0000
71.3600 0.5553
71.3700 0.4225
71.3800 0.8018
71.3900 0.2578
71.4000 0.0000
71.4100 0.0000
71.4200 0.0000
71.4300 0.0000
71.4400 0.0000
71.4500 0.4052
71.4600 0.5655
71.4700 0.0000
71.4800 0.9888
71.4900 0.8370
71.5000 0.2158
71.5100 0.9400
71.5200 0.9861
71.5300 0.0000
71.5400 0.5205
71.5500 1.7864
71.5600 0.6313
71.5700 0.0000
71.5800 0.0000
71.5900 0.0000
71.6000 1.5857
71.6100 0.3171
71.6200 1.0765
71.6300 0.9489
71.6400 1.2121
71.6500 0.7857
71.6600 1.3513
71.6700 1.5906
71.6800 2.0077
71.6900 0.0000
71.7000 1.7904
71.7100 0.2410
71.7200 0.0000
71.7300 3.0544
71.7400 0.0000
71.7500 0.0000
71.7600 0.0000
71.7700 1.9469
71.7800 0.0000
71.7900 0.0000
71.8000 0.0000
71.8100 0.0000
71.8200 0.0000
71.8300 0.0000
71.8400 0.0951
71.8500 1.6866
71.8600 0.7831
71.8700 0.3158
71.8800 0.0000
71.8900 0.0000
71.9000 0.0000
71.9100 1.5196
71.9200 1.4056
71.9300 2.0565
71.9400 0.1034
71.9500 0.0000
71.9600 0.0000
71.9700 0.0000
71.9800 0.0000
71.9900 0.5203
72.0000 1.4487
72.0100 0.6759
72.0200 1.8286
72.0300 1.4261
72.0400 1.0101
72.0500 1.0251
72.0600 0.0000
72.0700 0.0000
72.0800 0.0000
72.0900 0.9579
72.1000 1.0882
72.1100 0.8793
72.1200 0.0000
72.1300 0.0000
72.1400 0.0000
72.1500 1.0176
72.1600 2.0671
72.1700 0.9945
72.1800 1.3736
72.1900 0.7016
72.2000 1.4501
72.2100 0.4822
72.2200 0.0000
72.2300 0.8052
72.2400 1.2692
72.2500 2.7317
72.2600 0.0874
72.2700 0.9897
72.2800 0.0000
72.2900 0.0000
72.3000 0.0000
72.3100 0.0000
72.3200 0.0000
72.3300 0.0000
72.3400 1.7498
72.3500 0.1752
72.3600 2.5180
72.3700 0.1637
72.3800 2.3805
72.3900 0.0000
72.4000 0.0000
72.4100 0.0000
72.4200 0.5940
72.4300 0.4414
72.4400 0.0000
72.4500 0.0000
72.4600 0.0000
72.4700 2.0238
72.4800 0.0000
72.4900 1.9933
72.5000 0.6768
72.5100 2.8979
72.5200 1.5623
72.5300 0.5921
72.5400 1.3005
72.5500 0.0000
72.5600 0.0000
72.5700 1.0209
72.5800 0.0107
72.5900 1.1435
72.6000 1.2609
72.6100 1.0963
72.6200 1.6848
72.6300 0.9596
72.6400 0.0000
72.6500 0.7603
72.6600 1.2635
72.6700 2.9058
72.6800 0.0665
72.6900 0.0000
72.7000 0.2300
72.7100 1.1332
72.7200 0.6689
72.7300 0.0000
72.7400 0.5922
72.7500 1.8009
72.7600 1.6565
72.7700 0.8938
72.7800 0.1248
72.7900 0.0000
72.8000 0.0000
72.8100 0.5202
72.8200 3.5220
72.8300 1.0192
72.8400 0.0000
72.8500 1.0266
72.8600 0.0000
72.8700 0.0000
72.8800 1.0053
72.8900 0.0000
72.9000 0.9886
72.9100 0.9926
72.9200 0.0000
72.9300 1.0026
72.9400 2.0363
72.9500 0.0000
72.9600 3.1153
72.9700 0.0000
72.9800 0.0000
72.9900 0.0000
73.0000 0.0482
73.0100 1.3853
73.0200 4.0011
73.0300 0.8780
73.0400 1.0383
73.0500 1.0620
73.0600 0.0000
73.0700 0.9758
73.0800 0.7886
73.0900 0.1926
73.1000 2.0126
73.1100 0.0076
73.1200 0.0000
73.1300 0.9801
73.1400 0.0000
73.1500 0.0000
73.1600 0.0000
73.1700 1.3100
73.1800 1.4561
73.1900 0.2568
73.2000 2.7806
73.2100 0.1880
73.2200 3.0199
73.2300 0.0000
73.2400 0.0000
73.2500 0.2551
73.2600 1.3319
73.2700 0.1865
73.2800 0.1258
73.2900 0.9595
73.3000 0.0000
73.3100 0.9477
73.3200 4.0701
73.3300 0.0000
73.3400 0.0000
73.3500 0.9251
73.3600 5.0320
73.3700 1.0214
73.3800 3.0198
73.3900 0.7898
73.4000 1.5992
73.4100 0.0000
73.4200 0.9834
73.4300 0.0000
73.4400 0.0000
73.4500 0.0000
73.4600 0.0000
73.4700 0.9647
73.4800 0.9695
73.4900 0.6702
73.5000 0.3243
73.5100 0.0000
73.5200 0.0000
73.5300 0.0000
73.5400 0.1396
73.5500 1.8045
73.5600 0.3482
73.5700 1.6936
73.5800 1.4928
73.5900 0.4775
73.6000 0.9757
73.6100 1.8090
73.6200 1.1592
73.6300 1.9312
73.6400 2.0128
73.6500 0.0000
73.6600 0.5805
73.6700 1.5031
73.6800 0.9628
73.6900 0.1808
73.7000 0.7863
73.7100 0.8212
73.7200 0.1605
73.7300 0.9140
73.7400 1.9957
73.7500 0.0000
73.7600 0.2024
73.7700 0.7071
73.7800 0.0000
73.7900 1.9450
73.8000 0.0000
73.8100 1.0516
73.8200 1.7963
73.8300 1.1856
73.8400 0.0000
73.8500 0.0710
73.8600 0.9140
73.8700 0.0000
73.8800 0.0000
73.8900 0.0000
73.9000 1.0085
73.9100 0.0000
73.9200 1.7352
73.9300 1.1699
73.9400 2.1686
73.9500 0.1026
73.9600 1.0739
73.9700 0.0000
73.9800 0.0000
73.9900 0.3887
74.0000 2.0787
74.0100 0.5032
74.0200 0.0000
74.0300 0.0000
74.0400 0.9972
74.0500 0.0000
74.0600 1.9909
74.0700 0.9897
74.0800 0.0000
74.0900 1.6972
74.1000 1.8550
74.1100 1.6537
74.1200 0.0000
74.1300 0.0000
74.1400 1.5951
74.1500 1.2531
74.1600 1.0603
74.1700 0.9427
74.1800 0.0000
74.1900 0.0000
74.2000 1.0519
74.2100 0.9662
74.2200 0.6064
74.2300 1.1180
74.2400 0.3365
74.2500 0.0000
74.2600 0.0000
74.2700 0.0000
74.2800 0.0000
74.2900 0.0000
74.3000 0.0000
74.3100 0.9685
74.3200 0.0000
74.3300 0.0000
74.3400 0.0000
74.3500 0.7771
74.3600 1.2159
74.3700 0.0000
74.3800 0.0743
74.3900 2.0811
74.4000 2.0150
74.4100 3.1474
74.4200 1.1286
74.4300 0.6166
74.4400 0.0000
74.4500 0.7235
74.4600 0.2598
74.4700 1.9932
74.4800 1.0485
74.4900 0.0000
74.5000 0.0000
74.5100 0.3186
74.5200 1.7259
74.5300 0.0000
74.5400 0.0000
74.5500 0.0000
74.5600 1.0186
74.5700 0.0000
74.5800 0.9211
74.5900 0.0355
74.6000 0.0000
74.6100 1.0026
74.6200 0.0000
74.6300 0.0000
74.6400 0.9680
74.6500 2.8686
74.6600 0.3745
74.6700 1.4020
74.6800 0.1786
74.6900 0.0000
74.7000 0.0000
74.7100 0.0000
74.7200 0.1765
74.7300 0.4441
74.7400 0.1468
74.7500 0.1635
74.7600 0.2131
74.7700 0.1088
74.7800 0.5478
74.7900 0.0961
74.8000 1.0132
74.8100 1.0213
74.8200 0.8393
74.8300 0.0000
74.8400 1.3953
74.8500 1.6561
74.8600 1.0502
74.8700 0.6841
74.8800 0.2928
74.8900 0.8950
74.9000 1.0685
74.9100 5.9478
74.9200 0.3471
74.9300 3.6809
74.9400 1.4097
74.9500 2.4945
74.9600 0.5431
74.9700 2.0732
74.9800 1.1141
74.9900 1.0860
75.0000 1.0967
75.0100 0.1152
75.0200 1.8870
75.0300 0.0000
75.0400 0.0000
75.0500 0.0000
75.0600 0.0000
75.0700 0.0000
75.0800 0.0000
75.0900 0.0000
75.1000 0.0000
75.1100 0.0000
75.1200 0.0598
75.1300 1.0893
75.1400 0.8498
75.1500 0.9531
75.1600 0.9879
75.1700 0.5234
75.1800 0.4602
75.1900 1.0053
75.2000 0.0000
75.2100 3.7436
75.2200 1.2213
75.2300 0.1041
75.2400 1.3311
75.2500 1.5828
75.2600 1.0235
75.2700 0.5082
75.2800 0.5593
75.2900 1.2613
75.3000 0.6358
75.3100 0.8580
75.3200 2.1446
75.3300 2.0805
75.3400 1.0624
75.3500 1.8015
75.3600 0.0000
75.3700 1.9739
75.3800 0.0000
75.3900 0.0000
75.4000 0.6876
75.4100 0.2902
75.4200 0.8367
75.4300 0.1013
75.4400 0.0000
75.4500 1.0330
75.4600 1.0078
75.4700 0.0000
75.4800 0.9191
75.4900 2.7265
75.5000 0.4849
75.5100 0.0000
75.5200 0.0000
75.5300 0.9227
75.5400 2.0915
75.5500 1.0675
75.5600 1.0731
75.5700 0.7741
75.5800 0.0000
75.5900 0.0000
75.6000 0.0000
75.6100 0.6776
75.6200 0.3109
75.6300 0.0000
75.6400 1.1025
75.6500 0.0633
75.6600 1.0916
75.6700 0.8057
75.6800 0.3542
75.6900 0.6687
75.7000 2.9904
75.7100 0.0000
75.7200 2.0488
75.7300 0.9623
75.7400 0.9449
75.7500 0.1052
75.7600 3.0984
75.7700 0.3771
75.7800 1.5489
75.7900 0.0000
75.8000 0.0000
75.8100 0.0000
75.8200 0.9459
75.8300 1.0153
75.8400 0.9775
75.8500 0.0000
75.8600 1.0312
75.8700 0.1616
75.8800 0.9946
75.8900 3.0223
75.9000 0.0000
75.9100 1.9670
75.9200 2.9924
75.9300 8.0347
75.9400 1.0427
75.9500 2.9885
75.9600 7.7238
75.9700 1.3403
75.9800 3.9256
75.9900 1.0410
76.0000 1.8027
76.0100 1.9852
76.0200 1.0738
76.0300 0.0000
76.0400 0.0000
76.0500 0.0000
76.0600 1.0040
76.0700 1.0372
76.0800 1.0304
76.0900 0.0000
76.1000 0.0000
76.1100 0.0000
76.1200 1.4401
76.1300 1.4551
76.1400 0.0000
76.1500 0.9734
76.1600 0.0000
76.1700 0.0000
76.1800 0.0000
76.1900 0.0000
76.2000 0.0000
76.2100 1.3090
76.2200 1.0704
76.2300 0.5471
76.2400 1.2663
76.2500 1.7008
76.2600 2.3305
76.2700 1.4167
76.2800 1.0851
76.2900 0.0000
76.3000 0.0000
76.3100 0.2905
76.3200 2.0789
76.3300 0.6294
76.3400 0.5784
76.3500 0.4253
76.3600 0.8204
76.3700 0.2519
76.3800 0.0000
76.3900 0.9536
76.4000 0.0000
76.4100 0.0000
76.4200 0.0000
76.4300 0.0000
76.4400 0.9662
76.4500 0.0000
76.4600 0.9541
76.4700 0.0000
76.4800 0.0000
76.4900 1.0154
76.5000 2.0793
76.5100 1.8407
76.5200 0.0000
76.5300 0.0000
76.5400 0.0000
76.5500 0.5715
76.5600 0.4517
76.5700 0.0000
76.5800 1.0535
76.5900 0.0000
76.6000 1.9107
76.6100 0.0000
76.6200 1.0049
76.6300 1.2948
76.6400 0.6808
76.6500 0.9929
76.6600 0.0000
76.6700 1.0222
76.6800 0.0000
76.6900 0.0000
76.7000 0.0000
76.7100 0.0000
76.7200 0.9889
76.7300 0.0000
76.7400 0.0000
76.7500 1.0445
76.7600 0.0000
76.7700 0.0000
76.7800 1.9433
76.7900 0.0000
76.8000 0.0000
76.8100 0.0127
76.8200 1.0831
76.8300 0.8801
76.8400 0.0000
76.8500 0.7465
76.8600 2.6571
76.8700 0.5367
76.8800 0.0000
76.8900 0.7560
76.9000 0.2284
76.9100 0.9590
76.9200 1.0375
76.9300 2.1660
76.9400 1.2093
76.9500 0.7326
76.9600 0.0000
76.9700 0.0000
76.9800 1.1214
76.9900 1.3716
77.0000 0.5550
77.0100 1.8913
77.0200 1.2240
77.0300 0.0055
77.0400 0.0000
77.0500 0.3068
77.0600 1.1689
77.0700 0.6282
77.0800 0.5556
77.0900 0.4340
77.1000 0.0000
77.1100 0.5699
77.1200 0.1048
77.1300 0.0000
77.1400 0.0000
77.1500 0.0271
77.1600 0.0948
77.1700 0.8136
77.1800 2.1572
77.1900 1.9517
77.2000 0.0000
77.2100 1.8161
77.2200 1.1091
77.2300 1.1195
77.2400 1.0038
77.2500 1.1570
77.2600 1.1057
77.2700 0.7836
77.2800 0.0000
77.2900 0.0000
77.3000 0.0000
77.3100 0.0000
77.3200 0.0000
77.3300 0.0000
77.3400 1.9515
77.3500 0.9832
77.3600 0.1943
77.3700 0.7558
77.3800 1.0227
77.3900 1.0423
77.4000 0.0000
77.4100 0.6555
77.4200 1.0628
77.4300 0.2227
77.4400 0.0000
77.4500 1.0484
77.4600 2.9090
77.4700 0.0000
77.4800 0.0000
77.4900 1.1422
77.5000 0.0000
77.5100 0.0000
77.5200 0.0000
77.5300 0.0000
77.5400 0.0000
77.5500 1.0139
77.5600 0.0950
77.5700 0.9328
77.5800 0.0000
77.5900 1.0386
77.6000 0.4807
77.6100 1.5542
77.6200 0.0000
77.6300 0.0000
77.6400 0.0000
77.6500 0.0000
77.6600 1.0009
77.6700 0.0000
77.6800 0.0000
77.6900 0.0000
77.7000 0.0000
77.7100 0.4968
77.7200 0.4806
77.7300 0.0000
77.7400 0.0000
77.7500 0.9404
77.7600 0.0000
77.7700 1.0163
77.7800 0.1765
77.7900 0.8674
77.8000 1.4543
77.8100 0.6770
77.8200 0.9760
77.8300 0.0000
77.8400 1.7926
77.8500 1.2492
77.8600 0.0000
77.8700 0.9846
77.8800 2.0231
77.8900 0.0000
77.9000 0.0000
77.9100 0.0000
77.9200 0.0000
77.9300 0.5841
77.9400 0.4144
77.9500 1.8581
77.9600 0.2269
77.9700 1.0094
77.9800 0.0572
77.9900 0.9471
78.0000 0.0000
78.0100 0.0000
78.0200 0.0000
78.0300 0.0000
78.0400 0.6278
78.0500 1.1052
78.0600 1.2328
78.0700 1.0138
78.0800 0.0000
78.0900 0.9717
78.1000 0.0000
78.1100 0.2794
78.1200 1.0764
78.1300 1.5613
78.1400 0.0000
78.1500 0.9738
78.1600 0.0000
78.1700 0.8315
78.1800 0.1462
78.1900 0.0000
78.2000 0.0000
78.2100 1.0508
78.2200 0.0000
78.2300 0.9549
78.2400 1.4700
78.2500 1.4056
78.2600 1.4079
78.2700 0.6034
78.2800 1.7426
78.2900 0.2181
78.3000 1.9864
78.3100 0.0000
78.3200 3.2078
78.3300 0.7481
78.3400 0.0000
78.3500 0.0000
78.3600 0.0000
78.3700 0.0000
78.3800 0.0000
78.3900 1.0453
78.4000 1.0123
78.4100 0.9776
78.4200 0.2141
78.4300 0.8041
78.4400 0.0000
78.4500 0.0000
78.4600 1.9639
78.4700 0.0000
78.4800 0.9723
78.4900 0.8607
78.5000 0.1274
78.5100 1.0008
78.5200 0.8796
78.5300 0.0000
78.5400 0.0000
78.5500 0.0000
78.5600 0.0000
78.5700 0.0000
78.5800 0.9466
78.5900 1.0250
78.6000 0.9240
78.6100 0.0957
78.6200 0.9473
78.6300 0.0000
78.6400 0.0000
78.6500 0.0000
78.6600 0.5632
78.6700 1.5990
78.6800 0.0000
78.6900 0.7455
78.7000 0.2368
78.7100 0.0000
78.7200 0.0000
78.7300 0.0000
78.7400 0.0000
78.7500 0.0000
78.7600 1.0003
78.7700 0.0000
78.7800 0.0000
78.7900 0.9648
78.8000 0.0000
78.8100 2.7678
78.8200 0.1019
78.8300 0.0000
78.8400 0.0000
78.8500 0.0000
78.8600 0.3535
78.8700 1.0834
78.8800 0.5500
78.8900 0.6456
78.9000 1.8465
78.9100 1.5144
78.9200 0.9268
78.9300 2.1349
78.9400 0.0000
78.9500 0.0000
78.9600 1.0766
78.9700 0.3708
78.9800 0.5515
78.9900 0.0000
79.0000 0.0000
79.0100 0.0000
79.0200 2.0943
79.0300 0.9907
79.0400 1.1416
79.0500 0.0000
79.0600 0.9906
79.0700 0.9275
79.0800 0.0000
79.0900 0.0000
79.1000 0.9472
79.1100 0.0000
79.1200 0.0000
79.1300 0.0000
79.1400 0.9529
79.1500 2.0011
79.1600 0.0000
79.1700 1.2606
79.1800 0.6584
79.1900 0.0000
79.2000 0.0000
79.2100 0.0000
79.2200 0.7313
79.2300 0.2286
79.2400 0.0000
79.2500 1.9551
79.2600 0.9708
79.2700 0.2338
79.2800 0.7661
79.2900 1.0149
79.3000 0.5097
79.3100 0.4761
79.3200 0.0000
79.3300 1.6928
79.3400 0.4227
79.3500 0.9738
79.3600 1.0995
79.3700 2.0153
79.3800 1.3592
79.3900 1.7537
79.4000 0.9593
79.4100 0.5437
79.4200 0.4353
79.4300 0.7447
79.4400 0.2561
79.4500 0.9197
79.4600 0.0661
79.4700 1.1253
79.4800 0.9064
79.4900 0.0000
79.5000 1.2480
79.5100 1.8343
79.5200 0.0000
79.5300 0.0000
79.5400 0.0000
79.5500 0.0000
79.5600 1.9230
79.5700 1.0670
79.5800 0.1557
79.5900 1.8288
79.6000 0.3588
79.6100 2.1022
79.6200 0.5554
79.6300 0.6022
79.6400 0.3506
79.6500 0.9623
79.6600 0.0000
79.6700 0.0000
79.6800 0.9589
79.6900 0.0000
79.7000 0.0000
79.7100 2.0159
79.7200 0.4582
79.7300 0.4933
79.7400 0.0000
79.7500 1.5475
79.7600 1.4009
79.7700 0.0000
79.7800 0.0000
79.7900 0.9537
79.8000 0.0000
79.8100 1.0434
79.8200 0.0000
79.8300 0.0000
79.8400 1.0045
79.8500 0.0000
79.8600 0.8036
79.8700 1.1674
79.8800 0.0000
79.8900 0.0000
79.9000 0.0000
79.9100 0.2702
79.9200 1.0297
79.9300 0.4647
79.9400 1.1722
79.9500 0.0000
79.9600 0.9822
79.9700 0.0000
79.9800 0.8943
79.9900 0.0613
80.0000 1.1114
80.0100 0.0000
80.0200 0.0000
80.0300 0.4191
80.0400 2.7227
80.0500 2.0509
80.0600 1.3853
80.0700 1.3022
80.0800 0.0000
80.0900 0.0000
80.1000 0.0000
80.1100 0.1651
80.1200 1.5649
80.1300 2.0246
80.1400 2.9528
80.1500 0.5286
80.1600 0.4493
80.1700 0.7309
80.1800 0.2713
80.1900 0.9800
80.2000 1.0047
80.2100 0.0000
80.2200 1.1789
80.2300 0.8351
80.2400 0.7728
80.2500 1.2084
80.2600 0.0000
80.2700 1.0748
80.2800 0.0000
80.2900 0.0000
80.3000 2.7900
80.3100 0.0838
80.3200 0.1371
80.3300 0.8067
80.3400 0.0000
80.3500 0.0000
80.3600 0.9912
80.3700 0.0000
80.3800 1.4330
80.3900 0.5808
80.4000 0.0000
80.4100 0.0000
80.4200 0.0000
80.4300 0.0000
80.4400 0.0000
80.4500 1.0583
80.4600 0.4595
80.4700 1.1005
80.4800 2.7154
80.4900 0.6848
80.5000 0.9788
80.5100 0.0000
80.5200 1.0776
80.5300 1.0198
80.5400 0.0000
80.5500 0.0000
80.5600 0.0000
80.5700 0.5208
80.5800 1.5117
80.5900 0.0000
80.6000 0.0000
80.6100 0.0000
80.6200 0.0000
80.6300 0.0000
80.6400 0.0000
80.6500 0.0000
80.6600 0.0000
80.6700 0.0000
80.6800 0.0000
80.6900 0.9740
80.7000 0.9774
80.7100 0.8706
80.7200 2.1447
80.7300 0.1065
80.7400 1.9435
80.7500 0.0000
80.7600 0.0000
80.7700 0.0000
80.7800 1.5316
80.7900 1.6321
80.8000 0.0000
80.8100 0.0000
80.8200 0.8832
80.8300 0.1379
80.8400 2.0368
80.8500 0.1651
80.8600 0.9495
80.8700 0.6764
80.8800 1.3313
80.8900 0.5191
80.9000 1.0417
80.9100 1.9921
80.9200 1.2404
80.9300 0.0000
80.9400 0.0000
80.9500 0.0000
80.9600 0.0000
80.9700 0.0000
80.9800 0.7709
80.9900 1.2835
81.0000 1.0194
81.0100 2.4335
81.0200 0.7092
81.0300 0.0000
81.0400 0.0000
81.0500 0.0000
81.0600 0.0000
81.0700 0.0000
81.0800 0.3353
81.0900 0.7150
81.1000 0.0000
81.1100 2.0668
81.1200 1.7027
81.1300 1.2851
81.1400 2.0572
81.1500 1.0070
81.1600 0.0000
81.1700 0.0000
81.1800 0.2584
81.1900 0.7237
81.2000 0.0000
81.2100 0.0000
81.2200 0.0000
81.2300 0.0000
81.2400 0.0000
81.2500 0.0000
81.2600 0.0190
81.2700 1.0205
81.2800 1.0036
81.2900 0.0000
81.3000 0.0000
81.3100 0.0000
81.3200 0.0000
81.3300 1.1581
81.3400 1.5419
81.3500 0.4516
81.3600 0.9472
81.3700 0.0372
81.3800 1.9663
81.3900 0.9661
81.4000 0.9270
81.4100 0.0000
81.4200 1.5009
81.4300 0.4685
81.4400 2.6686
81.4500 1.1508
81.4600 1.1212
81.4700 1.0247
81.4800 1.0653
81.4900 1.8945
81.5000 3.3301
81.5100 1.0738
81.5200 0.6086
81.5300 0.0000
81.5400 0.0000
81.5500 0.0000
81.5600 0.8474
81.5700 2.0686
81.5800 0.0000
81.5900 0.0000
81.6000 0.0000
81.6100 0.0000
81.6200 0.0000
81.6300 0.0000
81.6400 0.0000
81.6500 0.0000
81.6600 0.0000
81.6700 0.0000
81.6800 0.0000
81.6900 0.0751
81.7000 0.8974
81.7100 1.0179
81.7200 1.3829
81.7300 0.6328
81.7400 0.0000
81.7500 0.6060
81.7600 0.3356
81.7700 1.9908
81.7800 0.0000
81.7900 1.8936
81.8000 0.1210
81.8100 0.9260
81.8200 0.4205
81.8300 0.9609
81.8400 0.3109
81.8500 0.3195
81.8600 0.6512
81.8700 0.3037
81.8800 1.7196
81.8900 1.2382
81.9000 0.0355
81.9100 0.0000
81.9200 0.0000
81.9300 0.3466
81.9400 0.6647
81.9500 0.0000
81.9600 0.6427
81.9700 0.3842
81.9800 0.0000
81.9900 1.9625
82.0000 3.1668
82.0100 1.9414
82.0200 0.0000
82.0300 0.0000
82.0400 0.0000
82.0500 0.0000
82.0600 0.5513
82.0700 2.0751
82.0800 1.9996
82.0900 0.2280
82.1000 0.0000
82.1100 0.9986
82.1200 0.9799
82.1300 0.2348
82.1400 1.4129
82.1500 1.3072
82.1600 1.1818
82.1700 1.0243
82.1800 1.6660
82.1900 0.2871
82.2000 1.0238
82.2100 0.0000
82.2200 1.0625
82.2300 1.8698
82.2400 0.0000
82.2500 1.0033
82.2600 0.9892
82.2700 1.0368
82.2800 2.5499
82.2900 1.3195
82.3000 0.0000
82.3100 1.8547
82.3200 2.1226
82.3300 1.9250
82.3400 0.0000
82.3500 1.0388
82.3600 2.3467
82.3700 1.0796
82.3800 2.5214
82.3900 2.0310
82.4000 1.2305
82.4100 1.0076
82.4200 2.6103
82.4300 5.0144
82.4400 0.9613
82.4500 0.5028
82.4600 1.4984
82.4700 1.4023
82.4800 3.5587
82.4900 5.2048
82.5000 0.7327
82.5100 3.9344
82.5200 1.1197
82.5300 3.0046
82.5400 4.2984
82.5500 4.7550
82.5600 3.9151
82.5700 4.4120
82.5800 2.6655
82.5900 3.6311
82.6000 4.1210
82.6100 2.6255
82.6200 2.6131
82.6300 2.0306
82.6400 1.3785
82.6500 5.6899
82.6600 3.9033
82.6700 2.7647
82.6800 2.1951
82.6900 2.6389
82.7000 1.1175
82.7100 2.1738
82.7200 1.1925
82.7300 3.0212
82.7400 4.1420
82.7500 1.0390
82.7600 5.5389
82.7700 2.5303
82.7800 0.9380
82.7900 2.4324
82.8000 1.1849
82.8100 1.0267
82.8200 4.0459
82.8300 0.2739
82.8400 3.8188
82.8500 1.2807
82.8600 0.9921
82.8700 0.0000
82.8800 0.3014
82.8900 2.2427
82.9000 0.6070
82.9100 0.5761
82.9200 2.0697
82.9300 0.3088
82.9400 1.8905
82.9500 0.1259
82.9600 3.0137
82.9700 1.0507
82.9800 2.1192
82.9900 1.4343
83.0000 1.7333
83.0100 1.5475
83.0200 0.6825
83.0300 0.3979
83.0400 0.0000
83.0500 0.9276
83.0600 0.0863
83.0700 0.0000
83.0800 1.1794
83.0900 1.8316
83.1000 0.0000
83.1100 0.0000
83.1200 0.0000
83.1300 1.9679
83.1400 1.7870
83.1500 0.2370
83.1600 0.0000
83.1700 0.0000
83.1800 2.0054
83.1900 0.0000
83.2000 0.3256
83.2100 1.6784
83.2200 0.0000
83.2300 0.0000
83.2400 0.0000
83.2500 0.0000
83.2600 0.0000
83.2700 0.0000
83.2800 1.0742
83.2900 1.8919
83.3000 0.0000
83.3100 0.0000
83.3200 0.4634
83.3300 1.6158
83.3400 0.8554
83.3500 0.9321
83.3600 0.0000
83.3700 0.0000
83.3800 0.9951
83.3900 1.1186
83.4000 2.8218
83.4100 0.0000
83.4200 0.0000
83.4300 0.0000
83.4400 0.9874
83.4500 0.6733
83.4600 1.0708
83.4700 0.2106
83.4800 0.9573
83.4900 0.0257
83.5000 0.0000
83.5100 0.0000
83.5200 0.0000
83.5300 0.4412
83.5400 0.5484
83.5500 0.9818
83.5600 0.0000
83.5700 0.8125
83.5800 1.2099
83.5900 1.9828
83.6000 0.0000
83.6100 0.0000
83.6200 0.2951
83.6300 0.7039
83.6400 0.0000
83.6500 1.5688
83.6600 1.7698
83.6700 1.4237
83.6800 1.1206
83.6900 0.1424
83.7000 1.9998
83.7100 0.1583
83.7200 0.9339
83.7300 0.3649
83.7400 1.1429
83.7500 0.5534
83.7600 0.0000
83.7700 0.0000
83.7800 1.4863
83.7900 0.1258
83.8000 2.2916
83.8100 2.1334
83.8200 1.7892
83.8300 0.0000
83.8400 0.0000
83.8500 0.9824
83.8600 3.2410
83.8700 0.9161
83.8800 1.7526
83.8900 1.0946
83.9000 4.1172
83.9100 1.2992
83.9200 1.0717
83.9300 0.9561
83.9400 0.9736
83.9500 0.0000
83.9600 1.0003
83.9700 0.9623
83.9800 0.6892
83.9900 0.3045
84.0000 0.0000
84.0100 0.9778
84.0200 0.9870
84.0300 0.0000
84.0400 0.0000
84.0500 0.0000
84.0600 1.9744
84.0700 0.0000
84.0800 1.0257
84.0900 0.7145
84.1000 1.2197
84.1100 0.0000
84.1200 0.9953
84.1300 1.0387
84.1400 0.0000
84.1500 0.9904
84.1600 0.0000
84.1700 0.0000
84.1800 0.0000
84.1900 0.6618
84.2000 2.9030
84.2100 0.4749
84.2200 0.9783
84.2300 0.1034
84.2400 1.9764
84.2500 1.0658
84.2600 1.0818
84.2700 0.6601
84.2800 0.0000
84.2900 0.0000
84.3000 0.9827
84.3100 0.7929
84.3200 0.1877
84.3300 0.9925
84.3400 0.0026
84.3500 0.1801
84.3600 0.7872
84.3700 0.9983
84.3800 0.0000
84.3900 0.0000
84.4000 0.0000
84.4100 0.0000
84.4200 0.0000
84.4300 0.0000
84.4400 0.0000
84.4500 0.0000
84.4600 0.0000
84.4700 0.0000
84.4800 0.9751
84.4900 0.0000
84.5000 0.9853
84.5100 0.0000
84.5200 0.9727
84.5300 0.0000
84.5400 1.0097
84.5500 0.0210
84.5600 2.0051
84.5700 1.9531
84.5800 4.0175
84.5900 0.0000
84.6000 0.0000
84.6100 0.0000
84.6200 0.7591
84.6300 0.2740
84.6400 0.0000
84.6500 0.9898
84.6600 0.1127
84.6700 0.8900
84.6800 0.0000
84.6900 0.3939
84.7000 1.5947
84.7100 0.0000
84.7200 0.0000
84.7300 0.0000
84.7400 0.0000
84.7500 0.0000
84.7600 3.0097
84.7700 1.1327
84.7800 1.0916
84.7900 1.7359
84.8000 3.3988
84.8100 1.5640
84.8200 0.9987
84.8300 0.9768
84.8400 2.5350
84.8500 1.2395
84.8600 1.0859
84.8700 0.9629
84.8800 1.2176
84.8900 1.1047
84.9000 0.7253
84.9100 2.0499
84.9200 0.0000
84.9300 0.0000
84.9400 0.7442
84.9500 4.0391
84.9600 1.0512
84.9700 1.2248
84.9800 1.0986
84.9900 0.9110
85.0000 0.0000
85.0100 0.0000
85.0200 0.0000
85.0300 0.0000
85.0400 0.0000
85.0500 0.7735
85.0600 1.1172
85.0700 1.1639
85.0800 0.0000
85.0900 0.0000
85.1000 0.2515
85.1100 1.6435
85.1200 0.9702
85.1300 0.0000
85.1400 0.6090
85.1500 0.3377
85.1600 0.0000
85.1700 1.9147
85.1800 1.0711
85.1900 0.9432
85.2000 0.9889
85.2100 0.0000
85.2200 0.0000
85.2300 0.0000
85.2400 0.0000
85.2500 0.6761
85.2600 1.8113
85.2700 0.1436
85.2800 1.3182
85.2900 0.0113
85.3000 0.0000
85.3100 0.0000
85.3200 0.0000
85.3300 0.0000
85.3400 0.0000
85.3500 0.0000
85.3600 0.9450
85.3700 0.0000
85.3800 0.8702
85.3900 0.0874
85.4000 0.1016
85.4100 0.9398
85.4200 1.2565
85.4300 0.7037
85.4400 3.0278
85.4500 1.0536
85.4600 1.9092
85.4700 1.9230
85.4800 0.8453
85.4900 0.1460
85.5000 2.0822
85.5100 0.0000
85.5200 5.0537
85.5300 0.9637
85.5400 0.0000
85.5500 0.4998
85.5600 1.0545
85.5700 1.3689
85.5800 1.0734
85.5900 0.0000
85.6000 0.0000
85.6100 2.0124
85.6200 0.0000
85.6300 0.0000
85.6400 0.0000
85.6500 0.0000
85.6600 0.9492
85.6700 0.9754
85.6800 0.0000
85.6900 0.9718
85.7000 0.0000
85.7100 1.9248
85.7200 0.9664
85.7300 1.0210
85.7400 0.3289
85.7500 1.5366
85.7600 2.2113
85.7700 0.0000
85.7800 0.6803
85.7900 0.3135
85.8000 0.0000
85.8100 0.3142
85.8200 1.0092
85.8300 0.6494
85.8400 0.0000
85.8500 0.0000
85.8600 0.0000
85.8700 0.0000
85.8800 0.0000
85.8900 0.0000
85.9000 0.8172
85.9100 2.1978
85.9200 0.0897
85.9300 0.0000
85.9400 0.0000
85.9500 0.0000
85.9600 0.0000
85.9700 1.0332
85.9800 1.0080
85.9900 1.3446
86.0000 0.6718
86.0100 0.0000
86.0200 0.0000
86.0300 0.0000
86.0400 0.0000
86.0500 0.0000
86.0600 0.0000
86.0700 0.0000
86.0800 0.0000
86.0900 0.0000
86.1000 0.0000
86.1100 0.0000
86.1200 0.9594
86.1300 0.1138
86.1400 3.9546
86.1500 0.9611
86.1600 0.0000
86.1700 1.5026
86.1800 2.6036
86.1900 2.7109
86.2000 1.3953
86.2100 1.0129
86.2200 0.0000
86.2300 1.8861
86.2400 0.1370
86.2500 0.0000
86.2600 0.0000
86.2700 0.3081
86.2800 0.6863
86.2900 0.9785
86.3000 0.9962
86.3100 0.0000
86.3200 0.0000
86.3300 0.9688
86.3400 0.0000
86.3500 0.0702
86.3600 1.1652
86.3700 1.8053
86.3800 0.0000
86.3900 0.4656
86.4000 0.5863
86.4100 0.0000
86.4200 0.0000
86.4300 0.0000
86.4400 0.9650
86.4500 2.9891
86.4600 1.9989
86.4700 0.0000
86.4800 1.0282
86.4900 0.0000
86.5000 0.0000
86.5100 1.0253
86.5200 0.6541
86.5300 0.3226
86.5400 0.0000
86.5500 0.0000
86.5600 0.9886
86.5700 0.0000
86.5800 0.0000
86.5900 0.6678
86.6000 1.3528
86.6100 0.9972
86.6200 1.1970
86.6300 1.4737
86.6400 2.4624
86.6500 0.0000
86.6600 2.9660
86.6700 1.2197
86.6800 1.7919
86.6900 0.5582
86.7000 1.4758
86.7100 4.8426
86.7200 4.3459
86.7300 2.9701
86.7400 1.0436
86.7500 0.8078
86.7600 0.1530
86.7700 1.9677
86.7800 0.0000
86.7900 0.0000
86.8000 2.9243
86.8100 1.0043
86.8200 0.0000
86.8300 0.0000
86.8400 1.0494
86.8500 0.0000
86.8600 1.0149
86.8700 0.0000
86.8800 2.2276
86.8900 0.9111
86.9000 0.0000
86.9100 0.9710
86.9200 1.8716
86.9300 1.1031
86.9400 0.0000
86.9500 0.0000
86.9600 0.9870
86.9700 0.9363
86.9800 0.0842
86.9900 0.1031
87.0000 0.8671
87.0100 0.0000
87.0200 1.0870
87.0300 0.0000
87.0400 0.5514
87.0500 0.4022
87.0600 0.0000
87.0700 0.0000
87.0800 0.0000
87.0900 0.0475
87.1000 1.9893
87.1100 0.8094
87.1200 0.0000
87.1300 0.0000
87.1400 0.0000
87.1500 0.0000
87.1600 0.7012
87.1700 0.2851
87.1800 0.0000
87.1900 1.9848
87.2000 0.0000
87.2100 0.0000
87.2200 0.0000
87.2300 0.0000
87.2400 0.4761
87.2500 1.5302
87.2600 0.0000
87.2700 0.7420
87.2800 0.2482
87.2900 0.9209
87.3000 0.0968
87.3100 2.0905
87.3200 2.1683
87.3300 1.7582
87.3400 1.9964
87.3500 0.4711
87.3600 0.4628
87.3700 0.0000
87.3800 3.4773
87.3900 0.2077
87.4000 0.0000
87.4100 0.0700
87.4200 2.8863
87.4300 2.2898
87.4400 0.7601
87.4500 0.0000
87.4600 0.5436
87.4700 0.4579
87.4800 0.0000
87.4900 2.6634
87.5000 1.3217
87.5100 2.9688
87.5200 0.1087
87.5300 1.8561
87.5400 0.2942
87.5500 0.6932
87.5600 1.4353
87.5700 0.5190
87.5800 0.0000
87.5900 0.0000
87.6000 1.9559
87.6100 0.0000
87.6200 1.0515
87.6300 3.1377
87.6400 3.1064
87.6500 0.9862
87.6600 1.0318
87.6700 0.5635
87.6800 1.4778
87.6900 0.0000
87.7000 0.0000
87.7100 1.9667
87.7200 2.0385
87.7300 0.0060
87.7400 0.0000
87.7500 2.2300
87.7600 1.6687
87.7700 0.0000
87.7800 0.0000
87.7900 0.0000
87.8000 1.0282
87.8100 0.0000
87.8200 0.0000
87.8300 0.9444
87.8400 0.0000
87.8500 0.0000
87.8600 0.9788
87.8700 0.9929
87.8800 0.0000
87.8900 1.2336
87.9000 0.8164
87.9100 0.0000
87.9200 0.0000
87.9300 1.9848
87.9400 0.9982
87.9500 0.1694
87.9600 1.8362
87.9700 1.0056
87.9800 0.0000
87.9900 0.9817
88.0000 0.0000
88.0100 0.7223
88.0200 1.2553
88.0300 1.0133
88.0400 1.9699
88.0500 1.2068
88.0600 2.1916
88.0700 2.1555
88.0800 1.3816
88.0900 0.0000
88.1000 0.0000
88.1100 0.0000
88.1200 0.0000
88.1300 0.0000
88.1400 2.0932
88.1500 3.0717
88.1600 0.1408
88.1700 0.7951
88.1800 0.0000
88.1900 0.9957
88.2000 1.4816
88.2100 0.4565
88.2200 0.0000
88.2300 0.0000
88.2400 0.0000
88.2500 0.0000
88.2600 1.0967
88.2700 1.0727
88.2800 2.0501
88.2900 1.1024
88.3000 0.6363
88.3100 1.5563
88.3200 0.4514
88.3300 2.4821
88.3400 2.4539
88.3500 0.0000
88.3600 0.0000
88.3700 0.0000
88.3800 0.0000
88.3900 0.9945
88.4000 0.0000
88.4100 0.0000
88.4200 0.5807
88.4300 0.3797
88.4400 0.0000
88.4500 1.8330
88.4600 0.1058
88.4700 1.9411
88.4800 2.1550
88.4900 0.8892
88.5000 0.0000
88.5100 0.0000
88.5200 1.1412
88.5300 1.8924
88.5400 0.7403
88.5500 1.2319
88.5600 0.9680
88.5700 0.0000
88.5800 0.0000
88.5900 1.0609
88.6000 1.2733
88.6100 0.6549
88.6200 0.0000
88.6300 0.0000
88.6400 0.0000
88.6500 0.0000
88.6600 0.0000
88.6700 0.0000
88.6800 0.0000
88.6900 1.0751
88.7000 0.2349
88.7100 0.7134
88.7200 0.4222
88.7300 1.5768
88.7400 1.0108
88.7500 2.4230
88.7600 0.5728
88.7700 0.0000
88.7800 0.9794
88.7900 0.0000
88.8000 0.3785
88.8100 1.5967
88.8200 0.0000
88.8300 0.0000
88.8400 0.0000
88.8500 2.6436
88.8600 2.0528
88.8700 0.2364
88.8800 0.9803
88.8900 0.0000
88.9000 0.0000
88.9100 0.0000
88.9200 0.9279
88.9300 1.0288
88.9400 0.5058
88.9500 1.5389
88.9600 1.0012
88.9700 0.0000
88.9800 0.0000
88.9900 0.0000
89.0000 1.1420
89.0100 1.2454
89.0200 1.6400
89.0300 0.3769
89.0400 0.6623
89.0500 1.5997
89.0600 1.4905
89.0700 1.7440
89.0800 0.2511
89.0900 0.9671
89.1000 1.0461
89.1100 1.9018
89.1200 0.2101
89.1300 0.7795
89.1400 0.0000
89.1500 1.9868
89.1600 0.0000
89.1700 3.7229
89.1800 1.3235
89.1900 0.9824
89.2000 2.0124
89.2100 2.0624
89.2200 0.0000
89.2300 0.2531
89.2400 0.7569
89.2500 0.4729
89.2600 0.6034
89.2700 0.0000
89.2800 0.0000
89.2900 0.9623
89.3000 0.0000
89.3100 0.0056
89.3200 0.9597
89.3300 0.2030
89.3400 1.1200
89.3500 0.6876
89.3600 0.0000
89.3700 0.6217
89.3800 2.1820
89.3900 2.0473
89.4000 1.0567
89.4100 0.1389
89.4200 0.0000
89.4300 0.0000
89.4400 0.0000
89.4500 0.9936
89.4600 0.0000
89.4700 0.0000
89.4800 0.0000
89.4900 0.0000
89.5000 0.0000
89.5100 0.0000
89.5200 0.0000
89.5300 1.0189
89.5400 0.0000
89.5500 0.0000
89.5600 0.0000
89.5700 2.4074
89.5800 2.7776
89.5900 1.8654
89.6000 0.7561
89.6100 1.0859
89.6200 2.1229
89.6300 0.0668
89.6400 0.0000
89.6500 0.4217
89.6600 1.5381
89.6700 0.0000
89.6800 0.4773
89.6900 0.4805
89.7000 0.9849
89.7100 1.0395
89.7200 0.0000
89.7300 0.0000
89.7400 1.0504
89.7500 0.0000
89.7600 0.0000
89.7700 0.0000
89.7800 0.0000
89.7900 0.0000
89.8000 0.0000
89.8100 0.0000
89.8200 0.0000
89.8300 0.8846
89.8400 1.0632
89.8500 0.0000
89.8600 0.0000
89.8700 0.6220
89.8800 1.8837
89.8900 0.5950
89.9000 0.6469
89.9100 0.4781
89.9200 0.0000
89.9300 0.0000
89.9400 2.0366
89.9500 0.0000
89.9600 0.0000
89.9700 0.0000
89.9800 0.0000
89.9900 0.0000
90.0000 0.0000
90.0100 0.0000
90.0200 0.0000
90.0300 0.0000
90.0400 0.0000
90.0500 1.9605
90.0600 0.0086
90.0700 0.3520
90.0800 2.8882
90.0900 2.0054
90.1000 0.6135
90.1100 0.0000
90.1200 0.0000
90.1300 0.0000
90.1400 0.0000
90.1500 0.9806
90.1600 0.0000
90.1700 0.0000
90.1800 0.0000
90.1900 1.1505
90.2000 0.3917
90.2100 1.5713
90.2200 0.0000
90.2300 0.0000
90.2400 1.7485
90.2500 1.1929
90.2600 1.0228
90.2700 1.0958
90.2800 0.9218
90.2900 0.9344
90.3000 1.3927
90.3100 0.6839
90.3200 0.5430
90.3300 0.4633
90.3400 1.6614
90.3500 0.2594
90.3600 0.0000
90.3700 2.0712
90.3800 0.0000
90.3900 0.0000
90.4000 0.9881
90.4100 0.3904
90.4200 0.6129
90.4300 0.0000
90.4400 0.0000
90.4500 0.7771
90.4600 1.1973
90.4700 2.0247
90.4800 0.9911
90.4900 0.0000
90.5000 0.0000
90.5100 1.3736
90.5200 0.7450
90.5300 0.0000
90.5400 0.6349
90.5500 0.3953
90.5600 0.0000
90.5700 2.1815
90.5800 0.0000
90.5900 0.9822
90.6000 0.0000
90.6100 0.0000
90.6200 0.0000
90.6300 0.0000
90.6400 0.5723
90.6500 0.4493
90.6600 0.7805
90.6700 0.2616
90.6800 0.9432
90.6900 0.0626
90.7000 0.0000
90.7100 0.0000
90.7200 0.0000
90.7300 1.3530
90.7400 1.0499
90.7500 1.4370
90.7600 1.6662
90.7700 0.3073
90.7800 0.0000
90.7900 0.0000
90.8000 1.1065
90.8100 0.0000
90.8200 1.2373
90.8300 0.7134
90.8400 0.0000
90.8500 0.0000
90.8600 0.6064
90.8700 0.3458
90.8800 0.0000
90.8900 0.9918
90.9000 0.0862
90.9100 0.1055
90.9200 0.8634
90.9300 0.0000
90.9400 0.0000
90.9500 0.5316
90.9600 2.1941
90.9700 0.4333
90.9800 0.7861
90.9900 0.2353
91.0000 0.0000
91.0100 1.9335
91.0200 0.1441
91.0300 1.8514
91.0400 1.9801
91.0500 0.0000
91.0600 1.9046
91.0700 0.0000
91.0800 0.0000
91.0900 0.0000
91.1000 0.0000
91.1100 0.9655
91.1200 0.0000
91.1300 0.0000
91.1400 0.2644
91.1500 0.6801
91.1600 2.1114
91.1700 1.9950
91.1800 1.5820
91.1900 1.0521
91.2000 1.2142
91.2100 0.0000
91.2200 0.0000
91.2300 0.0000
91.2400 0.0000
91.2500 0.0000
91.2600 0.3988
91.2700 1.8966
91.2800 2.1907
91.2900 0.5910
91.3000 0.7525
91.3100 0.0000
91.3200 0.9596
91.3300 1.0202
91.3400 0.0000
91.3500 0.2620
91.3600 0.7372
91.3700 0.0000
91.3800 0.0000
91.3900 0.0000
91.4000 0.0000
91.4100 0.8287
91.4200 1.1808
91.4300 0.9973
91.4400 0.0000
91.4500 0.2212
91.4600 1.8926
91.4700 0.0000
91.4800 1.0542
91.4900 1.1559
91.5000 0.8244
91.5100 1.5762
91.5200 1.4878
91.5300 0.0000
91.5400 2.0444
91.5500 0.1488
91.5600 0.8425
91.5700 1.9689
91.5800 0.0000
91.5900 0.0000
91.6000 0.0000
91.6100 0.0000
91.6200 0.0000
91.6300 0.0000
91.6400 3.0170
91.6500 1.9999
91.6600 0.1838
91.6700 1.7800
91.6800 0.3724
91.6900 1.6880
91.7000 0.5366
91.7100 0.4114
91.7200 0.0000
91.7300 0.0000
91.7400 2.9437
91.7500 1.0909
91.7600 2.8176
91.7700 0.2325
91.7800 0.7927
91.7900 1.0016
91.8000 1.9897
91.8100 2.2397
91.8200 2.5691
91.8300 0.3244
91.8400 0.0000
91.8500 1.0310
91.8600 0.0925
91.8700 0.8901
91.8800 0.0000
91.8900 1.4342
91.9000 3.0080
91.9100 0.5446
91.9200 0.6540
91.9300 0.3636
91.9400 0.0000
91.9500 4.7233
91.9600 3.2013
91.9700 3.1603
91.9800 1.2807
91.9900 1.9735
92.0000 1.5859
92.0100 1.3147
92.0200 1.2349
92.0300 1.8349
92.0400 1.5191
92.0500 3.2524
92.0600 1.2823
92.0700 1.9570
92.0800 0.0000
92.0900 1.0166
92.1000 0.0000
92.1100 0.9701
92.1200 0.0000
92.1300 0.9865
92.1400 0.0000
92.1500 1.6395
92.1600 0.3752
92.1700 0.9962
92.1800 1.1741
92.1900 1.2331
92.2000 1.8192
92.2100 0.9502
92.2200 0.4889
92.2300 0.5414
92.2400 2.0860
92.2500 0.0000
92.2600 0.0000
92.2700 1.0060
92.2800 2.0246
92.2900 0.1373
92.3000 2.1101
92.3100 2.4396
92.3200 2.3165
92.3300 0.0000
92.3400 0.0000
92.3500 0.0000
92.3600 0.7900
92.3700 0.2024
92.3800 0.0000
92.3900 0.0000
92.4000 1.3122
92.4100 0.8476
92.4200 0.5444
92.4300 0.6669
92.4400 1.0225
92.4500 1.9430
92.4600 0.0000
92.4700 0.9406
92.4800 0.9852
92.4900 0.0230
92.5000 1.0922
92.5100 0.9125
92.5200 1.3246
92.5300 0.6946
92.5400 1.0009
92.5500 0.6071
92.5600 1.7517
92.5700 1.6609
92.5800 0.7992
92.5900 2.0547
92.6000 2.0439
92.6100 1.8353
92.6200 0.0000
92.6300 1.0131
92.6400 0.4133
92.6500 0.5280
92.6600 2.2346
92.6700 2.8691
92.6800 0.9862
92.6900 0.9044
92.7000 0.0883
92.7100 0.9621
92.7200 0.0000
92.7300 0.0000
92.7400 1.9371
92.7500 0.0000
92.7600 1.0244
92.7700 0.0000
92.7800 0.0000
92.7900 0.8476
92.8000 0.1438
92.8100 1.9740
92.8200 1.9554
92.8300 0.0000
92.8400 0.0000
92.8500 0.0000
92.8600 0.5482
92.8700 1.1232
92.8800 1.1110
92.8900 0.3029
92.9000 0.0000
92.9100 1.0128
92.9200 0.9976
92.9300 1.3758
92.9400 1.6565
92.9500 0.3551
92.9600 2.1878
92.9700 0.5544
92.9800 0.0000
92.9900 0.0000
93.0000 0.0000
93.0100 0.9738
93.0200 0.0714
93.0300 0.1199
93.0400 0.8752
93.0500 0.3237
93.0600 0.7230
93.0700 0.0000
93.0800 0.6136
93.0900 0.4221
93.1000 0.0000
93.1100 0.0000
93.1200 0.0000
93.1300 0.0000
93.1400 0.1566
93.1500 1.0784
93.1600 1.0724
93.1700 1.0840
93.1800 1.1035
93.1900 0.4645
93.2000 0.0000
93.2100 0.0000
93.2200 1.0036
93.2300 0.0000
93.2400 0.0000
93.2500 0.1903
93.2600 1.0559
93.2700 1.6449
93.2800 0.9836
93.2900 0.0000
93.3000 0.7312
93.3100 0.3616
93.3200 0.0000
93.3300 0.9884
93.3400 0.0454
93.3500 1.9603
93.3600 1.2742
93.3700 0.8109
93.3800 1.2540
93.3900 1.7018
93.4000 0.0000
93.4100 1.6948
93.4200 0.2899
93.4300 0.0000
93.4400 1.0012
93.4500 0.0095
93.4600 1.1554
93.4700 1.9855
93.4800 0.7433
93.4900 2.2525
93.5000 2.1207
93.5100 0.0000
93.5200 1.0055
93.5300 1.6150
93.5400 1.3402
93.5500 0.0297
93.5600 0.9945
93.5700 2.0027
93.5800 0.0000
93.5900 0.0000
93.6000 0.9995
93.6100 1.5204
93.6200 0.4001
93.6300 0.7510
93.6400 0.2068
93.6500 0.0000
93.6600 0.9321
93.6700 0.9914
93.6800 0.0000
93.6900 1.3565
93.7000 1.5339
93.7100 2.1030
93.7200 0.0000
93.7300 0.0000
93.7400 0.8393
93.7500 0.1812
93.7600 0.0000
93.7700 0.0000
93.7800 0.1997
93.7900 0.9294
93.8000 0.3756
93.8100 2.5932
93.8200 0.0000
93.8300 0.6676
93.8400 1.0817
93.8500 0.2304
93.8600 0.0000
93.8700 0.0000
93.8800 0.1416
93.8900 0.8420
93.9000 0.0000
93.9100 0.1227
93.9200 1.5393
93.9300 2.4497
93.9400 0.0000
93.9500 1.0202
93.9600 0.0000
93.9700 0.9477
93.9800 1.1839
93.9900 2.8205
94.0000 0.9765
94.0100 0.0000
94.0200 0.4667
94.0300 1.5447
94.0400 0.9833
94.0500 0.0000
94.0600 1.0165
94.0700 0.9110
94.0800 1.0662
94.0900 0.0000
94.1000 0.0000
94.1100 0.9909
94.1200 1.4106
94.1300 1.1323
94.1400 1.6703
94.1500 0.7967
94.1600 0.7691
94.1700 0.2081
94.1800 0.0000
94.1900 0.0000
94.2000 0.0000
94.2100 0.0000
94.2200 0.0000
94.2300 0.9996
94.2400 0.5274
94.2500 0.4454
94.2600 0.9516
94.2700 1.0061
94.2800 0.0000
94.2900 0.0000
94.3000 0.0000
94.3100 1.3378
94.3200 1.8536
94.3300 0.7164
94.3400 0.0000
94.3500 0.0000
94.3600 1.0084
94.3700 0.0000
94.3800 0.0000
94.3900 0.0000
94.4000 1.0465
94.4100 0.0000
94.4200 0.0000
94.4300 0.3267
94.4400 1.1476
94.4500 1.6320
94.4600 0.7710
94.4700 0.4748
94.4800 0.7926
94.4900 1.7807
94.5000 0.0673
94.5100 2.6735
94.5200 2.6792
94.5300 0.0000
94.5400 0.0000
94.5500 1.4347
94.5600 1.5628
94.5700 1.6066
94.5800 1.3053
94.5900 2.8976
94.6000 0.0000
94.6100 0.0000
94.6200 0.9413
94.6300 0.0000
94.6400 0.0000
94.6500 0.0000
94.6600 0.0000
94.6700 0.0000
94.6800 1.7366
94.6900 1.3480
94.7000 0.0000
94.7100 3.0226
94.7200 0.0729
94.7300 1.0850
94.7400 1.0623
94.7500 1.7256
94.7600 0.9044
94.7700 1.1024
94.7800 0.0000
94.7900 0.0000
94.8000 0.0000
94.8100 0.0000
94.8200 0.0000
94.8300 0.0000
94.8400 0.0000
94.8500 1.0119
94.8600 0.0000
94.8700 0.9837
94.8800 0.0000
94.8900 0.0000
94.9000 0.0000
94.9100 0.9777
94.9200 1.1236
94.9300 1.0073
94.9400 0.0000
94.9500 0.6674
94.9600 0.0000
94.9700 1.3478
94.9800 0.9661
94.9900 1.0120
95.0000 0.0000
95.0100 0.0000
95.0200 0.0000
95.0300 0.0000
95.0400 0.0925
95.0500 1.9309
95.0600 0.0000
95.0700 0.3768
95.0800 2.0638
95.0900 1.1166
95.1000 0.4395
95.1100 0.0000
95.1200 0.0000
95.1300 0.0000
95.1400 1.1136
95.1500 1.9816
95.1600 0.2204
95.1700 1.0656
95.1800 1.0630
95.1900 0.5643
95.2000 0.0000
95.2100 1.7344
95.2200 0.3060
95.2300 1.7454
95.2400 1.2458
95.2500 0.1007
95.2600 0.9915
95.2700 0.0000
95.2800 0.3451
95.2900 0.6157
95.3000 0.0000
95.3100 1.0015
95.3200 0.0000
95.3300 0.0000
95.3400 0.0000
95.3500 0.0000
95.3600 0.9392
95.3700 1.9459
95.3800 0.0000
95.3900 0.0000
95.4000 0.0000
95.4100 0.0000
95.4200 0.0000
95.4300 0.0000
95.4400 0.9695
95.4500 0.0000
95.4600 0.9758
95.4700 0.0000
95.4800 1.2338
95.4900 2.0639
95.5000 0.6553
95.5100 1.0767
95.5200 0.6867
95.5300 0.4126
95.5400 1.9002
95.5500 0.1890
95.5600 1.0119
95.5700 0.0000
95.5800 0.9535
95.5900 0.2776
95.6000 0.6951
95.6100 0.0000
95.6200 1.0305
95.6300 0.0000
95.6400 0.9587
95.6500 0.0000
95.6600 0.0000
95.6700 0.0000
95.6800 1.0978
95.6900 0.8475
95.7000 0.3095
95.7100 1.5914
95.7200 0.0000
95.7300 0.0000
95.7400 0.0000
95.7500 0.0000
95.7600 0.0000
95.7700 0.0000
95.7800 0.0000
95.7900 0.3549
95.8000 1.9519
95.8100 1.3983
95.8200 1.2163
95.8300 0.0000
95.8400 0.0000
95.8500 0.0000
95.8600 1.0112
95.8700 0.0000
95.8800 0.9246
95.8900 0.9950
95.9000 0.0000
95.9100 0.3053
95.9200 0.6924
95.9300 0.4832
95.9400 0.4933
95.9500 0.9956
95.9600 0.9789
95.9700 0.9622
95.9800 0.0000
95.9900 0.9560
96.0000 1.0172
96.0100 0.2451
96.0200 1.0652
96.0300 0.6276
96.0400 0.0000
96.0500 1.0387
96.0600 0.0000
96.0700 0.9471
96.0800 0.0000
96.0900 0.0000
96.1000 0.0000
96.1100 1.2195
96.1200 1.8411
96.1300 0.0000
96.1400 3.9466
96.1500 0.0000
96.1600 1.3255
96.1700 0.6651
96.1800 1.0540
96.1900 0.9379
96.2000 2.0391
96.2100 1.8845
96.2200 0.0000
96.2300 0.3386
96.2400 1.1305
96.2500 1.5572
96.2600 0.0000
96.2700 0.0000
96.2800 1.7672
96.2900 0.2006
96.3000 1.0085
96.3100 1.9629
96.3200 1.9355
96.3300 0.2691
96.3400 1.8547
96.3500 0.9225
96.3600 1.0856
96.3700 1.7511
96.3800 1.2818
96.3900 1.6421
96.4000 1.2315
96.4100 2.1042
96.4200 0.0000
96.4300 0.9735
96.4400 1.2885
96.4500 2.6230
96.4600 0.0000
96.4700 1.2187
96.4800 0.8396
96.4900 2.3365
96.5000 0.6556
96.5100 0.0000
96.5200 0.0000
96.5300 1.9422
96.5400 0.9340
96.5500 0.9780
96.5600 0.0000
96.5700 0.0000
96.5800 2.5973
96.5900 1.1324
96.6000 1.4639
96.6100 0.0000
96.6200 2.0535
96.6300 1.3012
96.6400 3.0499
96.6500 0.6326
96.6600 2.5399
96.6700 0.0754
96.6800 0.5637
96.6900 0.4176
96.7000 1.0177
96.7100 0.0000
96.7200 0.9356
96.7300 0.0472
96.7400 0.9738
96.7500 0.3130
96.7600 1.0180
96.7700 1.4785
96.7800 0.6437
96.7900 0.0000
96.8000 0.0000
96.8100 0.8222
96.8200 1.1358
96.8300 0.9898
96.8400 0.0000
96.8500 0.0000
96.8600 1.0245
96.8700 0.3764
96.8800 0.6468
96.8900 1.9953
96.9000 0.0000
96.9100 1.0408
96.9200 0.0000
96.9300 0.0000
96.9400 0.0000
96.9500 0.1191
96.9600 0.8489
96.9700 0.3350
96.9800 0.7393
96.9900 0.0000
97.0000 0.6414
97.0100 0.0000
97.0200 0.3207
97.0300 1.7079
97.0400 0.2369
97.0500 2.0921
97.0600 0.0000
97.0700 0.0000
97.0800 1.3850
97.0900 2.5899
97.1000 0.5425
97.1100 0.4640
97.1200 1.0372
97.1300 1.8328
97.1400 1.1777
97.1500 1.0473
97.1600 1.9046
97.1700 0.0000
97.1800 0.0000
97.1900 0.0000
97.2000 0.0000
97.2100 0.5987
97.2200 1.0887
97.2300 1.4441
97.2400 0.0000
97.2500 0.9768
97.2600 1.0472
97.2700 2.8578
97.2800 0.0000
97.2900 0.3556
97.3000 2.6103
97.3100 0.9654
97.3200 0.0000
97.3300 0.0000
97.3400 0.9914
97.3500 0.0000
97.3600 0.0000
97.3700 0.0000
97.3800 0.0000
97.3900 0.0000
97.4000 1.0036
97.4100 0.0000
97.4200 0.0000
97.4300 0.0000
97.4400 0.8237
97.4500 0.2770
97.4600 0.0000
97.4700 0.0000
97.4800 0.1285
97.4900 2.2526
97.5000 2.5007
97.5100 1.3541
97.5200 0.5509
97.5300 0.9997
97.5400 0.7102
97.5500 0.3157
97.5600 0.0000
97.5700 0.0000
97.5800 0.0000
97.5900 0.1657
97.6000 0.8427
97.6100 0.0000
97.6200 0.0000
97.6300 0.0000
97.6400 0.0000
97.6500 0.0000
97.6600 0.0000
97.6700 0.0000
97.6800 1.9497
97.6900 0.9854
97.7000 0.0000
97.7100 0.0000
97.7200 1.0876
97.7300 0.0000
97.7400 1.5661
97.7500 1.4271
97.7600 0.0000
97.7700 0.9132
97.7800 2.1495
97.7900 1.1282
97.8000 3.0100
97.8100 0.2397
97.8200 1.1055
97.8300 0.6948
97.8400 0.0000
97.8500 0.0000
97.8600 1.4048
97.8700 0.5657
97.8800 0.0000
97.8900 0.9675
97.9000 0.0038
97.9100 0.0000
97.9200 0.0000
97.9300 0.0000
97.9400 0.0000
97.9500 0.9560
97.9600 0.9663
97.9700 1.7705
97.9800 0.2429
97.9900 0.0000
98.0000 0.0000
98.0100 0.0000
98.0200 0.2206
98.0300 1.0965
98.0400 0.7065
98.0500 0.0000
98.0600 0.0000
98.0700 0.0000
98.0800 0.0000
98.0900 1.8459
98.1000 0.1091
98.1100 0.0000
98.1200 0.0000
98.1300 0.0000
98.1400 0.0000
98.1500 0.0000
98.1600 1.0687
98.1700 0.8931
98.1800 0.0000
98.1900 0.0000
98.2000 0.0000
98.2100 1.9836
98.2200 0.0000
98.2300 0.0000
98.2400 1.9726
98.2500 0.0000
98.2600 0.4594
98.2700 1.0908
98.2800 1.7674
98.2900 0.6337
98.3000 0.0000
98.3100 1.0207
98.3200 0.0000
98.3300 1.9830
98.3400 0.0000
98.3500 1.0145
98.3600 1.4399
98.3700 0.5535
98.3800 0.9779
98.3900 0.0000
98.4000 1.0671
98.4100 0.0000
98.4200 2.0569
98.4300 0.0010
98.4400 0.0000
98.4500 0.0000
98.4600 0.0000
98.4700 0.9823
98.4800 0.9824
98.4900 0.0000
98.5000 0.7669
98.5100 1.2083
98.5200 0.0000
98.5300 0.0373
98.5400 0.9621
98.5500 0.0000
98.5600 0.0000
98.5700 0.0000
98.5800 0.4998
98.5900 1.4821
98.6000 0.0000
98.6100 1.1010
98.6200 0.0000
98.6300 1.0766
98.6400 0.9778
98.6500 0.0000
98.6600 1.0080
98.6700 0.0000
98.6800 1.0034
98.6900 0.9961
98.7000 0.6869
98.7100 0.0000
98.7200 0.3434
98.7300 0.0000
98.7400 0.0000
98.7500 0.0000
98.7600 0.2101
98.7700 2.8162
98.7800 2.3948
98.7900 0.7164
98.8000 1.6321
98.8100 0.4866
98.8200 3.6608
98.8300 0.2228
98.8400 1.9150
98.8500 0.1145
98.8600 1.8611
98.8700 0.0000
98.8800 1.0462
98.8900 0.4282
98.9000 0.5549
98.9100 0.7443
98.9200 1.1535
98.9300 1.0793
98.9400 0.1846
98.9500 0.9710
98.9600 0.1947
98.9700 3.0234
98.9800 2.8216
98.9900 0.0000
99.0000 1.9499
99.0100 1.5024
99.0200 1.1094
99.0300 1.0994
99.0400 0.2422
99.0500 0.9584
99.0600 0.9582
99.0700 0.0000
99.0800 0.4338
99.0900 2.4502
99.1000 0.0000
99.1100 0.0000
99.1200 2.3183
99.1300 2.5208
99.1400 1.2824
99.1500 0.0000
99.1600 0.9516
99.1700 0.0933
99.1800 2.0909
99.1900 0.7936
99.2000 1.7301
99.2100 1.2545
99.2200 1.6355
99.2300 2.1109
99.2400 0.3593
99.2500 1.6957
99.2600 1.2778
99.2700 1.0085
99.2800 0.0000
99.2900 1.1482
99.3000 1.7593
99.3100 0.0000
99.3200 0.9781
99.3300 0.0000
99.3400 0.6796
99.3500 0.3150
99.3600 0.0000
99.3700 0.0000
99.3800 3.0549
99.3900 0.0000
99.4000 0.2489
99.4100 1.1005
99.4200 1.0881
99.4300 0.5333
99.4400 0.0000
99.4500 0.0000
99.4600 0.0000
99.4700 0.0000
99.4800 1.0102
99.4900 0.0000
99.5000 0.9248
99.5100 1.8139
99.5200 2.8959
99.5300 0.6622
99.5400 1.7209
99.5500 0.7309
99.5600 1.1298
99.5700 0.2409
99.5800 0.0000
99.5900 0.9823
99.6000 0.0427
99.6100 0.2677
99.6200 0.5547
99.6300 2.6047
99.6400 1.0823
99.6500 0.4750
99.6600 1.0097
99.6700 0.0000
99.6800 1.8727
99.6900 1.2033
99.7000 1.0720
99.7100 1.8797
99.7200 0.0000
99.7300 0.9464
99.7400 0.5105
99.7500 0.6015
99.7600 0.6858
99.7700 0.3728
99.7800 0.9951
99.7900 0.0000
99.8000 0.6315
99.8100 0.0000
99.8200 0.3158
99.8300 0.0000
99.8400 0.4287
99.8500 0.6350
99.8600 2.5620
99.8700 0.4094
99.8800 0.7647
99.8900 0.2149
99.9000 0.0000
99.9100 0.1257
99.9200 2.0052
99.9300 1.9164
99.9400 0.0000
99.9500 0.0000
99.9600 1.0060
99.9700 0.0000
99.9800 1.0013
99.9900 0.0000
100.0000 1.8792
100.0100 1.0386
100.0200 0.0000
100.0300 0.0000
100.0400 0.0000
100.0500 0.0000
100.0600 0.4573
100.0700 0.4961
100.0800 0.0000
100.0900 2.0075
100.1000 0.0000
100.1100 1.8746
100.1200 1.0782
100.1300 2.0548
100.1400 1.2640
100.1500 0.7526
100.1600 1.3885
100.1700 1.5997
100.1800 0.5935
100.1900 0.3756
100.2000 0.9693
100.2100 0.8893
100.2200 0.1037
100.2300 1.9352
100.2400 0.0000
100.2500 0.0000
100.2600 1.9885
100.2700 1.0025
100.2800 0.0000
100.2900 1.0016
100.3000 0.0000
100.3100 0.0000
100.3200 1.9122
100.3300 0.0944
100.3400 0.9416
100.3500 0.2073
100.3600 1.0568
100.3700 0.6833
100.3800 0.0000
100.3900 0.9936
100.4000 0.9893
100.4100 0.0000
100.4200 0.8362
100.4300 1.1403
100.4400 0.0292
100.4500 0.9596
100.4600 0.0000
100.4700 0.0000
100.4800 0.4597
100.4900 1.0932
100.5000 0.4437
100.5100 0.0000
100.5200 0.0000
100.5300 1.0754
100.5400 2.1228
100.5500 1.9662
100.5600 0.2155
100.5700 1.9095
100.5800 1.9855
100.5900 3.5954
100.6000 1.0872
100.6100 0.4306
100.6200 1.5015
100.6300 0.4593
100.6400 0.0000
100.6500 0.0000
100.6600 0.0000
100.6700 0.2314
100.6800 0.7420
100.6900 1.0020
100.7000 0.0000
100.7100 0.0000
100.7200 0.0000
100.7300 0.7738
100.7400 1.1381
100.7500 1.0185
100.7600 1.9596
100.7700 0.0000
100.7800 1.5346
100.7900 2.3992
100.8000 0.0000
100.8100 0.9970
100.8200 0.6462
100.8300 1.1464
100.8400 1.1115
100.8500 0.1572
100.8600 0.0000
100.8700 0.0000
100.8800 0.2067
100.8900 0.7326
100.9000 0.0000
100.9100 0.9876
100.9200 0.0000
100.9300 1.0459
100.9400 0.7888
100.9500 1.9298
100.9600 1.2255
100.9700 1.0121
100.9800 1.9161
100.9900 0.0000
101.0000 0.0000
101.0100 1.0151
101.0200 0.0000
101.0300 0.5865
101.0400 1.0680
101.0500 0.2704
101.0600 0.0000
101.0700 0.9807
101.0800 0.0000
101.0900 0.0000
101.1000 0.0000
101.1100 0.0000
101.1200 0.0000
101.1300 0.0000
101.1400 1.4005
101.1500 0.6765
101.1600 0.9160
101.1700 0.1453
101.1800 0.0000
101.1900 0.0000
101.2000 0.0000
101.2100 1.0696
101.2200 2.9886
101.2300 1.0390
101.2400 0.0000
101.2500 0.0000
101.2600 0.9714
101.2700 1.0060
101.2800 1.9261
101.2900 1.0828
101.3000 0.8734
101.3100 0.2740
101.3200 0.7081
101.3300 0.4882
101.3400 0.5554
101.3500 0.0000
101.3600 1.0296
101.3700 0.8482
101.3800 0.1552
101.3900 0.0000
101.4000 0.0000
101.4100 1.9118
101.4200 2.0484
101.4300 0.3219
101.4400 0.0000
101.4500 0.6439
101.4600 1.0229
101.4700 2.7676
101.4800 1.2567
101.4900 1.0255
101.5000 0.9156
101.5100 0.0000
101.5200 0.0000
101.5300 0.9926
101.5400 0.4567
101.5500 0.5581
101.5600 1.9806
101.5700 1.6979
101.5800 1.3094
101.5900 0.0000
101.6000 0.0000
101.6100 1.0103
101.6200 0.2129
101.6300 1.8104
101.6400 0.0000
101.6500 0.0000
101.6600 1.0050
101.6700 1.6643
101.6800 0.3125
101.6900 0.9176
101.7000 0.1420
101.7100 0.0000
101.7200 0.0000
101.7300 0.0000
101.7400 0.0000
101.7500 0.4118
101.7600 0.5408
101.7700 0.9564
101.7800 0.0000
101.7900 0.0000
101.8000 0.8796
101.8100 0.0931
101.8200 1.0347
101.8300 1.8815
101.8400 0.0000
101.8500 0.0000
101.8600 0.0000
101.8700 0.0000
101.8800 1.7304
101.8900 1.1078
101.9000 2.1390
101.9100 1.0952
101.9200 2.0779
101.9300 0.9383
101.9400 0.2112
101.9500 0.7239
101.9600 0.4022
101.9700 1.1191
101.9800 1.1472
101.9900 1.1203
102.0000 0.3100
102.0100 0.8723
102.0200 1.0840
102.0300 0.0738
102.0400 1.0744
102.0500 1.0967
102.0600 0.7529
102.0700 0.4436
102.0800 0.5358
102.0900 0.0000
102.1000 1.7285
102.1100 1.0333
102.1200 0.1605
102.1300 1.9958
102.1400 0.9275
102.1500 0.0000
102.1600 0.2891
102.1700 0.6667
102.1800 0.0000
102.1900 2.5434
102.2000 0.4136
102.2100 0.9413
102.2200 0.0000
102.2300 0.0000
102.2400 0.0000
102.2500 0.0000
102.2600 0.0000
102.2700 1.9780
102.2800 0.9588
102.2900 0.0000
102.3000 0.6470
102.3100 0.3898
102.3200 0.0000
102.3300 0.9959
102.3400 0.0016
102.3500 1.0178
102.3600 0.0000
102.3700 4.2205
102.3800 0.6814
102.3900 0.0000
102.4000 0.0000
102.4100 1.0016
102.4200 0.0000
102.4300 0.0000
102.4400 0.9217
102.4500 0.0531
102.4600 0.0000
102.4700 0.2202
102.4800 0.7424
102.4900 1.4236
102.5000 0.5731
102.5100 0.0000
102.5200 0.0000
102.5300 0.0000
102.5400 0.0000
102.5500 0.0000
102.5600 0.0000
102.5700 0.0000
102.5800 1.0232
102.5900 0.0000
102.6000 0.4408
102.6100 0.5262
102.6200 0.0000
102.6300 0.7451
102.6400 1.2395
102.6500 1.0428
102.6600 1.0340
102.6700 0.9330
102.6800 0.0000
102.6900 0.0000
102.7000 0.0000
102.7100 0.4887
102.7200 1.0807
102.7300 0.4058
102.7400 0.7386
102.7500 0.2115
102.7600 1.0043
102.7700 0.9774
102.7800 0.0000
102.7900 0.0000
102.8000 0.3374
102.8100 0.6441
102.8200 0.0000
102.8300 0.0000
102.8400 1.7529
102.8500 0.2984
102.8600 0.0000
102.8700 0.0000
102.8800 0.9590
102.8900 0.9845
102.9000 0.9913
102.9100 1.1470
102.9200 0.0000
102.9300 0.0000
102.9400 0.0000
102.9500 0.0000
102.9600 0.0000
102.9700 0.0000
102.9800 0.0887
102.9900 2.1220
103.0000 1.1170
103.0100 1.7599
103.0200 0.3906
103.0300 0.5385
103.0400 1.9538
103.0500 0.0000
103.0600 0.0000
103.0700 0.0000
103.0800 0.0000
103.0900 1.0250
103.1000 0.9814
103.1100 0.0000
103.1200 0.0000
103.1300 0.0000
103.1400 2.0241
103.1500 0.6656
103.1600 1.3518
103.1700 0.0000
103.1800 4.3647
103.1900 0.0148
103.2000 0.5763
103.2100 1.1732
103.2200 0.8083
103.2300 0.0000
103.2400 0.0000
103.2500 0.5889
103.2600 0.4067
103.2700 2.7720
103.2800 1.0729
103.2900 0.1220
103.3000 0.0000
103.3100 0.0000
103.3200 0.0000
103.3300 0.0000
103.3400 0.0000
103.3500 0.9986
103.3600 0.0000
103.3700 0.7318
103.3800 2.1609
103.3900 0.1891
103.4000 0.9659
103.4100 0.0991
103.4200 0.8746
103.4300 0.0000
103.4400 0.0000
103.4500 1.4746
103.4600 0.5201
103.4700 1.2982
103.4800 0.6447
103.4900 1.0047
103.5000 0.0000
103.5100 0.9904
103.5200 0.9569
103.5300 0.0000
103.5400 0.0000
103.5500 0.4253
103.5600 0.5794
103.5700 0.9734
103.5800 0.7540
103.5900 2.0389
103.6000 0.1968
103.6100 1.0156
103.6200 1.9717
103.6300 1.0844
103.6400 0.8563
103.6500 0.0000
103.6600 0.5268
103.6700 0.6143
103.6800 0.0000
103.6900 1.0192
103.7000 0.9615
103.7100 0.0000
103.7200 0.0575
103.7300 1.9949
103.7400 0.2288
103.7500 1.1365
103.7600 0.6861
103.7700 0.4790
103.7800 0.4790
103.7900 0.0000
103.8000 0.0000
103.8100 1.9736
103.8200 1.0211
103.8300 0.0000
103.8400 0.1722
103.8500 1.1475
103.8600 0.7253
103.8700 0.0000
103.8800 0.0000
103.8900 0.6757
103.9000 1.1156
103.9100 0.2715
103.9200 1.8879
103.9300 0.1733
103.9400 0.9744
103.9500 0.0000
103.9600 0.2939
103.9700 1.0686
103.9800 1.5427
103.9900 0.0000
104.0000 0.6351
104.0100 1.0678
104.0200 1.2220
104.0300 0.0000
104.0400 2.0897
104.0500 1.0924
104.0600 0.8741
104.0700 0.0000
104.0800 0.0000
104.0900 0.5199
104.1000 1.6762
104.1100 0.7496
104.1200 0.0000
104.1300 0.0000
104.1400 1.0122
104.1500 1.1094
104.1600 0.9440
104.1700 0.2722
104.1800 1.0845
104.1900 1.9679
104.2000 1.5431
104.2100 1.6191
104.2200 0.3381
104.2300 0.8162
104.2400 0.1530
104.2500 0.0000
104.2600 0.0000
104.2700 0.0000
104.2800 0.2999
104.2900 1.5967
104.3000 0.0000
104.3100 0.0000
104.3200 0.0000
104.3300 0.7667
104.3400 0.2086
104.3500 0.9685
104.3600 1.9678
104.3700 0.0000
104.3800 0.2546
104.3900 0.7319
104.4000 0.0000
104.4100 0.0000
104.4200 0.0000
104.4300 0.0000
104.4400 0.9757
104.4500 0.0000
104.4600 1.0013
104.4700 0.0000
104.4800 0.2120
104.4900 2.8085
104.5000 0.3771
104.5100 0.5879
104.5200 0.0000
104.5300 0.9695
104.5400 0.0000
104.5500 0.0000
104.5600 0.0000
104.5700 0.0000
104.5800 0.0000
104.5900 0.9730
104.6000 0.9946
104.6100 0.0000
104.6200 0.0000
104.6300 0.0000
104.6400 0.9970
104.6500 2.0612
104.6600 0.0000
104.6700 0.0000
104.6800 0.0000
104.6900 0.0000
104.7000 0.9743
104.7100 0.0000
104.7200 0.0000
104.7300 0.5510
104.7400 0.4297
104.7500 0.0000
104.7600 0.9822
104.7700 0.0000
104.7800 0.0000
104.7900 0.9456
104.8000 1.0396
104.8100 2.0370
104.8200 0.0000
104.8300 0.0000
104.8400 1.0207
104.8500 0.0000
104.8600 0.0000
104.8700 0.0000
104.8800 0.0000
104.8900 0.0000
104.9000 0.0000
104.9100 0.0000
104.9200 2.3266
104.9300 1.6716
104.9400 0.0000
104.9500 0.0000
104.9600 0.0000
104.9700 0.9533
104.9800 1.8219
104.9900 1.1619
105.0000 5.0593
105.0100 0.8653
105.0200 1.4688
105.0300 0.7161
105.0400 3.1164
105.0500 0.0000
105.0600 0.0000
105.0700 0.0000
105.0800 0.0000
105.0900 1.0127
105.1000 0.0000
105.1100 0.1453
105.1200 0.8309
105.1300 0.0000
105.1400 0.0000
105.1500 0.5341
105.1600 0.4805
105.1700 0.0000
105.1800 0.7806
105.1900 0.1836
105.2000 1.0642
105.2100 0.0885
105.2200 0.8650
105.2300 0.0000
105.2400 0.0000
105.2500 0.0000
105.2600 0.0000
105.2700 0.0000
105.2800 0.0000
105.2900 1.9535
105.3000 0.0000
105.3100 0.0000
105.3200 0.0000
105.3300 2.2247
105.3400 0.7575
105.3500 0.0000
105.3600 0.0000
105.3700 0.0000
105.3800 0.0000
105.3900 0.0000
105.4000 0.0000
105.4100 0.0000
105.4200 0.0731
105.4300 0.9008
105.4400 0.0000
105.4500 1.0092
105.4600 0.4429
105.4700 0.5356
105.4800 1.0494
105.4900 0.0000
105.5000 1.9542
105.5100 1.9326
105.5200 1.2265
105.5300 0.0000
105.5400 0.2130
105.5500 0.8121
105.5600 0.9709
105.5700 0.9764
105.5800 1.0123
105.5900 3.0610
105.6000 0.9745
105.6100 0.0000
105.6200 0.0000
105.6300 1.0223
105.6400 0.0000
105.6500 1.9624
105.6600 0.3373
105.6700 2.6481
105.6800 0.0000
105.6900 0.0000
105.7000 0.9760
105.7100 0.0000
105.7200 1.0012
105.7300 1.0941
105.7400 0.0000
105.7500 0.0000
105.7600 0.0000
105.7700 0.0000
105.7800 1.9217
105.7900 1.0407
105.8000 0.0000
105.8100 0.0000
105.8200 0.8346
105.8300 0.1463
105.8400 0.0000
105.8500 1.0223
105.8600 0.0000
105.8700 0.0000
105.8800 0.0000
105.8900 1.5869
105.9000 3.6066
105.9100 0.0000
105.9200 0.0000
105.9300 1.9429
105.9400 0.1207
105.9500 0.9980
105.9600 0.3408
105.9700 2.6168
105.9800 0.3524
105.9900 0.6233
106.0000 0.0000
106.0100 0.6386
106.0200 0.3525
106.0300 0.0000
106.0400 1.8254
106.0500 0.1427
106.0600 3.0388
106.0700 0.0000
106.0800 0.0000
106.0900 1.0067
106.1000 1.9730
106.1100 0.0000
106.1200 2.3037
106.1300 0.6192
106.1400 0.0000
106.1500 0.0000
106.1600 0.0594
106.1700 0.9272
106.1800 1.2713
106.1900 0.7185
106.2000 0.4232
106.2100 0.5434
106.2200 0.0000
106.2300 0.7255
106.2400 1.0995
106.2500 3.0494
106.2600 2.0827
106.2700 0.1942
106.2800 1.9701
106.2900 1.3953
106.3000 2.8103
106.3100 1.0900
106.3200 1.5912
106.3300 0.0000
106.3400 1.5538
106.3500 0.4925
106.3600 0.0000
106.3700 0.0000
106.3800 0.0000
106.3900 1.9508
106.4000 0.0000
106.4100 0.0000
106.4200 0.0000
106.4300 0.6145
106.4400 0.3947
106.4500 0.0000
106.4600 0.0000
106.4700 0.9319
106.4800 0.0128
106.4900 0.1667
106.5000 0.7845
106.5100 0.0000
106.5200 0.0000
106.5300 0.0000
106.5400 0.0000
106.5500 0.0000
106.5600 0.9173
106.5700 0.9969
106.5800 1.0127
106.5900 0.0000
106.6000 0.0000
106.6100 0.1879
106.6200 1.7763
106.6300 0.7124
106.6400 0.7392
106.6500 0.4051
106.6600 0.7876
106.6700 1.9034
106.6800 0.2416
106.6900 0.0000
106.7000 0.0000
106.7100 0.9425
106.7200 0.2331
106.7300 0.4399
106.7400 0.1801
106.7500 1.1282
106.7600 0.0000
106.7700 0.0000
106.7800 2.9182
106.7900 0.0836
106.8000 1.1874
106.8100 1.8716
106.8200 1.0182
106.8300 0.0000
106.8400 2.1331
106.8500 1.0429
106.8600 0.0000
106.8700 0.0000
106.8800 0.0000
106.8900 0.9151
106.9000 0.9884
106.9100 0.0000
106.9200 1.1974
106.9300 0.7714
106.9400 0.9960
106.9500 0.9908
106.9600 1.0125
106.9700 0.7206
106.9800 0.2998
106.9900 0.0000
107.0000 0.9683
107.0100 0.0000
107.0200 0.1921
107.0300 2.8641
107.0400 0.6114
107.0500 0.0000
107.0600 1.3094
107.0700 0.9578
107.0800 0.0000
107.0900 0.8329
107.1000 0.1599
107.1100 1.0301
107.1200 0.0000
107.1300 0.0000
107.1400 0.0000
107.1500 0.0000
107.1600 0.0000
107.1700 0.5999
107.1800 0.4099
107.1900 0.0000
107.2000 0.0000
107.2100 1.8171
107.2200 1.1842
107.2300 2.8398
107.2400 2.0004
107.2500 0.0000
107.2600 0.0000
107.2700 0.0000
107.2800 0.0000
107.2900 0.0000
107.3000 0.0000
107.3100 1.0146
107.3200 0.0000
107.3300 0.1014
107.3400 0.8698
107.3500 1.9522
107.3600 0.0000
107.3700 1.4386
107.3800 2.4222
107.3900 0.6948
107.4000 1.3001
107.4100 0.0000
107.4200 1.0496
107.4300 0.0486
107.4400 1.9690
107.4500 1.2249
107.4600 1.3162
107.4700 2.0888
107.4800 0.1764
107.4900 0.1626
107.5000 0.0000
107.5100 0.0000
107.5200 0.0000
107.5300 0.0000
107.5400 0.0884
107.5500 0.9318
107.5600 1.9724
107.5700 0.3416
107.5800 0.5821
107.5900 0.0000
107.6000 0.0000
107.6100 0.0000
107.6200 0.9942
107.6300 1.0440
107.6400 1.1145
107.6500 0.9866
107.6600 0.0000
107.6700 0.9832
107.6800 0.0000
107.6900 0.5220
107.7000 1.5189
107.7100 0.6447
107.7200 0.2878
107.7300 0.0000
107.7400 0.0000
107.7500 0.0689
107.7600 0.9299
107.7700 0.0000
107.7800 0.0000
107.7900 0.0000
107.8000 0.0000
107.8100 0.0000
107.8200 0.0000
107.8300 0.0000
107.8400 1.7786
107.8500 0.1578
107.8600 0.0000
107.8700 0.0000
107.8800 0.0000
107.8900 0.9834
107.9000 0.0000
107.9100 0.9692
107.9200 0.0000
107.9300 1.0282
107.9400 2.0794
107.9500 0.8992
107.9600 0.0406
107.9700 0.0000
107.9800 0.0000
107.9900 1.9627
108.0000 0.0000
108.0100 0.0000
108.0200 0.9985
108.0300 1.0415
108.0400 0.0000
108.0500 0.9061
108.0600 1.0624
108.0700 0.9916
108.0800 0.9902
108.0900 2.0196
108.1000 0.0000
108.1100 0.0000
108.1200 0.0000
108.1300 0.0000
108.1400 0.0000
108.1500 1.9906
108.1600 0.0000
108.1700 0.0327
108.1800 0.9441
108.1900 0.0000
108.2000 0.0000
108.2100 0.4069
108.2200 1.0983
108.2300 0.5042
108.2400 0.0000
108.2500 0.7688
108.2600 1.1695
108.2700 0.0000
108.2800 1.1348
108.2900 3.8465
108.3000 0.0000
108.3100 0.0000
108.3200 0.9476
108.3300 0.5313
108.3400 1.0723
108.3500 0.3552
108.3600 0.0000
108.3700 0.8877
108.3800 0.0919
108.3900 1.0065
108.4000 0.1939
108.4100 2.0360
108.4200 1.0737
108.4300 0.6085
108.4400 0.0000
108.4500 0.9914
108.4600 0.0000
108.4700 0.0000
108.4800 0.0000
108.4900 0.9883
108.5000 0.0000
108.5100 0.2459
108.5200 0.7665
108.5300 0.0000
108.5400 0.0000
108.5500 0.0000
108.5600 0.0000
108.5700 0.8618
108.5800 0.2031
108.5900 0.0000
108.6000 1.0709
108.6100 0.0000
108.6200 0.0000
108.6300 0.3855
108.6400 0.6407
108.6500 0.0000
108.6600 0.0000
108.6700 0.0000
108.6800 0.0000
108.6900 0.0000
108.7000 2.0777
108.7100 1.9144
108.7200 0.2297
108.7300 0.7903
108.7400 0.9975
108.7500 0.9950
108.7600 0.0000
108.7700 0.0000
108.7800 0.0000
108.7900 0.0000
108.8000 0.0000
108.8100 0.9498
108.8200 1.0035
108.8300 0.9963
108.8400 0.3375
108.8500 0.6054
108.8600 0.0000
108.8700 0.0000
108.8800 0.9905
108.8900 1.9842
108.9000 0.0000
108.9100 0.0000
108.9200 0.0000
108.9300 0.0000
108.9400 0.0000
108.9500 0.4031
108.9600 1.6490
108.9700 0.5856
108.9800 0.4153
108.9900 0.0000
109.0000 0.0000
109.0100 1.0515
109.0200 0.0000
109.0300 0.1520
109.0400 0.8519
109.0500 0.0000
109.0600 0.0000
109.0700 0.0000
109.0800 0.0000
109.0900 2.7743
109.1000 1.0908
109.1100 1.0409
109.1200 0.0000
109.1300 0.9544
109.1400 0.9242
109.1500 0.0000
109.1600 0.0000
109.1700 0.9071
109.1800 1.0109
109.1900 0.6436
109.2000 1.0948
109.2100 1.2396
109.2200 2.0198
109.2300 0.0000
109.2400 0.9712
109.2500 0.0000
109.2600 0.0000
109.2700 1.0299
109.2800 0.0000
109.2900 0.0000
109.3000 1.6332
109.3100 1.0243
109.3200 0.1916
109.3300 0.0000
109.3400 0.0000
109.3500 0.9934
109.3600 0.2548
109.3700 0.7014
109.3800 0.0000
109.3900 0.9935
109.4000 0.0000
109.4100 0.0000
109.4200 0.0000
109.4300 0.9064
109.4400 0.0712
109.4500 0.0000
109.4600 0.0000
109.4700 0.0000
109.4800 0.0000
109.4900 0.0000
109.5000 0.5749
109.5100 1.3704
109.5200 0.9696
109.5300 0.0000
109.5400 0.0000
109.5500 3.0187
109.5600 1.0940
109.5700 0.8363
109.5800 1.1074
109.5900 0.4399
109.6000 0.5655
109.6100 1.0535
109.6200 1.0154
109.6300 0.0000
109.6400 0.0000
109.6500 0.0000
109.6600 1.0152
109.6700 0.9666
109.6800 0.2971
109.6900 0.7378
109.7000 1.9689
109.7100 0.5699
109.7200 0.4295
109.7300 0.0000
109.7400 0.9658
109.7500 0.0000
109.7600 0.0410
109.7700 0.9310
109.7800 1.2629
109.7900 1.8060
109.8000 0.9846
109.8100 0.5301
109.8200 2.0867
109.8300 1.0771
109.8400 0.2845
109.8500 2.0562
109.8600 0.0000
109.8700 0.0000
109.8800 0.0000
109.8900 0.0000
109.9000 0.0000
109.9100 0.7234
109.9200 0.5516
109.9300 0.8085
109.9400 1.4603
109.9500 1.4431
109.9600 0.0000
109.9700 4.0354
109.9800 1.0640
109.9900 0.0000
110.0000 0.9981
110.0100 1.3922
110.0200 0.5836
110.0300 0.0000
110.0400 0.6770
110.0500 0.3110
110.0600 0.0000
110.0700 0.9862
110.0800 1.0782
110.0900 0.0000
110.1000 1.0059
110.1100 0.0000
110.1200 0.0000
110.1300 0.0000
110.1400 0.0000
110.1500 0.0000
110.1600 0.0000
110.1700 0.0000
110.1800 2.9201
110.1900 1.0790
110.2000 0.8707
110.2100 0.6034
110.2200 2.5185
110.2300 0.5055
110.2400 1.1435
110.2500 1.0957
110.2600 0.3257
110.2700 0.0000
110.2800 0.9537
110.2900 1.0235
110.3000 1.9964
110.3100 3.1036
110.3200 0.7932
110.3300 0.0000
110.3400 0.0000
110.3500 0.9570
110.3600 0.0000
110.3700 0.0000
110.3800 0.8503
110.3900 0.1001
110.4000 0.0830
110.4100 2.8736
110.4200 0.0000
110.4300 0.0000
110.4400 0.0000
110.4500 0.9874
110.4600 1.6168
110.4700 1.0656
110.4800 2.1355
110.4900 0.1675
110.5000 1.0434
110.5100 0.0000
110.5200 0.0000
110.5300 1.3065
110.5400 0.6572
110.5500 0.0000
110.5600 0.0000
110.5700 0.0000
110.5800 0.0000
110.5900 0.0000
110.6000 0.0000
110.6100 0.0665
110.6200 1.9543
110.6300 0.0000
110.6400 1.0119
110.6500 0.4512
110.6600 1.5033
110.6700 0.0000
110.6800 0.0000
110.6900 0.8128
110.7000 0.1773
110.7100 0.0097
110.7200 1.0937
110.7300 0.8780
110.7400 0.0000
110.7500 0.0000
110.7600 0.4562
110.7700 0.4910
110.7800 0.0000
110.7900 0.7816
110.8000 1.2453
110.8100 0.0000
110.8200 1.9549
110.8300 0.0000
110.8400 0.0000
110.8500 0.0000
110.8600 0.0000
110.8700 0.9821
110.8800 0.9943
110.8900 1.0139
110.9000 0.0000
110.9100 0.8916
110.9200 1.0702
110.9300 0.0079
110.9400 0.0000
110.9500 0.0000
110.9600 0.3419
110.9700 0.5833
110.9800 0.9699
110.9900 0.9726
111.0000 1.7305
111.0100 1.0468
111.0200 3.9158
111.0300 0.2715
111.0400 4.8485
111.0500 0.2163
111.0600 1.8036
111.0700 0.7749
111.0800 1.1249
111.0900 0.6216
111.1000 1.4677
111.1100 1.5713
111.1200 1.2764
111.1300 1.1201
111.1400 0.0266
111.1500 0.9943
111.1600 0.0000
111.1700 0.3359
111.1800 1.6167
111.1900 0.0000
111.2000 0.9726
111.2100 0.9709
111.2200 0.0000
111.2300 0.0000
111.2400 1.0020
111.2500 2.1972
111.2600 0.8403
111.2700 0.2970
111.2800 1.0802
111.2900 2.0162
111.3000 0.5081
111.3100 0.0000
111.3200 0.0000
111.3300 0.0000
111.3400 0.9545
111.3500 0.0434
111.3600 0.2994
111.3700 3.7559
111.3800 0.3404
111.3900 0.6784
111.4000 0.9549
111.4100 0.0000
111.4200 1.7652
111.4300 1.3201
111.4400 0.0000
111.4500 1.0179
111.4600 1.1412
111.4700 2.9045
111.4800 0.0000
111.4900 0.0000
111.5000 0.9849
111.5100 0.5355
111.5200 0.4186
111.5300 0.0000
111.5400 0.0000
111.5500 0.0000
111.5600 0.0000
111.5700 0.9326
111.5800 0.2191
111.5900 0.7678
111.6000 1.5247
111.6100 1.2354
111.6200 2.7727
111.6300 0.2486
111.6400 0.0000
111.6500 2.6076
111.6600 1.3151
111.6700 1.0400
111.6800 0.0000
111.6900 2.2206
111.7000 1.7330
111.7100 0.0000
111.7200 0.0000
111.7300 0.0000
111.7400 0.9462
111.7500 1.1121
111.7600 1.6091
111.7700 1.1418
111.7800 0.1096
111.7900 1.3008
111.8000 1.6094
111.8100 1.0295
111.8200 1.0383
111.8300 0.0000
111.8400 0.0000
111.8500 0.9868
111.8600 0.0000
111.8700 0.0000
111.8800 0.0000
111.8900 0.1487
111.9000 1.0905
111.9100 2.4149
111.9200 1.3125
111.9300 0.0000
111.9400 0.0000
111.9500 0.6934
111.9600 0.2770
111.9700 0.0000
111.9800 1.9761
111.9900 1.0353
112.0000 1.9411
112.0100 1.2917
112.0200 0.6993
112.0300 0.0000
112.0400 0.5429
112.0500 1.4554
112.0600 0.8103
112.0700 0.2659
112.0800 0.0000
112.0900 0.9711
112.1000 0.0000
112.1100 0.0000
112.1200 0.0000
112.1300 0.0000
112.1400 0.0000
112.1500 0.0000
112.1600 0.0000
112.1700 0.0000
112.1800 0.0000
112.1900 0.0000
112.2000 0.9580
112.2100 0.9521
112.2200 0.0000
112.2300 0.8362
112.2400 1.9554
112.2500 0.9041
112.2600 0.9176
112.2700 0.3494
112.2800 0.0000
112.2900 0.9389
112.3000 0.0772
112.3100 0.0000
112.3200 0.0000
112.3300 0.0000
112.3400 0.0000
112.3500 0.0000
112.3600 0.9836
112.3700 0.9866
112.3800 0.0000
112.3900 0.8795
112.4000 1.1005
112.4100 0.0935
112.4200 0.9254
112.4300 0.2496
112.4400 0.7671
112.4500 0.0000
112.4600 0.0000
112.4700 0.0000
112.4800 0.0000
112.4900 0.0000
112.5000 0.0000
112.5100 0.9928
112.5200 0.0000
112.5300 0.0000
112.5400 0.0000
112.5500 0.0000
112.5600 0.0000
112.5700 2.1147
112.5800 1.5204
112.5900 1.7886
112.6000 0.4676
112.6100 0.9195
112.6200 2.1313
112.6300 2.9461
112.6400 0.9711
112.6500 0.0000
112.6600 0.0000
112.6700 0.0000
112.6800 0.9942
112.6900 1.1026
112.7000 0.7466
112.7100 0.1935
112.7200 2.9513
112.7300 1.0588
112.7400 0.9162
112.7500 0.2772
112.7600 1.1175
112.7700 0.6260
112.7800 0.0000
112.7900 0.0000
112.8000 0.9930
112.8100 1.0424
112.8200 0.0000
112.8300 0.9755
112.8400 0.0000
112.8500 0.0000
112.8600 1.6214
112.8700 1.9497
112.8800 0.7758
112.8900 0.9860
112.9000 0.0000
112.9100 0.0000
112.9200 0.0000
112.9300 0.9674
112.9400 0.9920
112.9500 0.9596
112.9600 0.2324
112.9700 0.7033
112.9800 0.0000
112.9900 1.5130
113.0000 0.4597
113.0100 0.0000
113.0200 0.0000
113.0300 0.0000
113.0400 0.0000
113.0500 0.0000
113.0600 1.1903
113.0700 0.7645
113.0800 0.9675
113.0900 1.0203
113.1000 0.0000
113.1100 0.0000
113.1200 0.0000
113.1300 1.0575
113.1400 0.9649
113.1500 0.9832
113.1600 0.9883
113.1700 1.1928
113.1800 0.3472
113.1900 0.7208
113.2000 0.0000
113.2100 0.6201
113.2200 0.3993
113.2300 0.0000
113.2400 0.0000
113.2500 2.1105
113.2600 1.1135
113.2700 1.1279
113.2800 0.7929
113.2900 0.3512
113.3000 0.6153
113.3100 0.0000
113.3200 1.6258
113.3300 0.3643
113.3400 0.8567
113.3500 0.1688
113.3600 0.9918
113.3700 0.0000
113.3800 0.0000
113.3900 0.0000
113.4000 0.0000
113.4100 0.0000
113.4200 0.0000
113.4300 0.0000
113.4400 0.9637
113.4500 0.8371
113.4600 1.0658
113.4700 1.9757
113.4800 0.0000
113.4900 0.0000
113.5000 0.3566
113.5100 0.6749
113.5200 0.0000
113.5300 0.9425
113.5400 0.0000
113.5500 0.0000
113.5600 1.9381
113.5700 1.0878
113.5800 1.0530
113.5900 1.8594
113.6000 0.0000
113.6100 0.0000
113.6200 1.0210
113.6300 1.1892
113.6400 1.5812
113.6500 1.0825
113.6600 2.0910
113.6700 1.1137
113.6800 0.0000
113.6900 2.1046
113.7000 0.8444
113.7100 0.0000
113.7200 1.4448
113.7300 1.0992
113.7400 0.4761
113.7500 0.7000
113.7600 1.8249
113.7700 1.2147
113.7800 0.0982
113.7900 0.0000
113.8000 0.0000
113.8100 1.3201
113.8200 0.9731
113.8300 2.0541
113.8400 0.4959
113.8500 0.6729
113.8600 0.3631
113.8700 0.0000
113.8800 0.8725
113.8900 0.0630
113.9000 0.1251
113.9100 0.9048
113.9200 1.0444
113.9300 0.0000
113.9400 0.0000
113.9500 0.0000
113.9600 0.0000
113.9700 0.9992
113.9800 3.9063
113.9900 1.0667
114.0000 0.0281
114.0100 0.0000
114.0200 0.0000
114.0300 0.3556
114.0400 1.6703
114.0500 0.5391
114.0600 0.4641
114.0700 2.3095
114.0800 1.4921
114.0900 0.0000
114.1000 0.0101
114.1100 1.1777
114.1200 1.2573
114.1300 0.8652
114.1400 2.7234
114.1500 0.4736
114.1600 0.5104
114.1700 0.0000
114.1800 0.7268
114.1900 0.2239
114.2000 0.9968
114.2100 2.0033
114.2200 0.9628
114.2300 0.0000
114.2400 0.0000
114.2500 1.0378
114.2600 1.4412
114.2700 0.4757
114.2800 0.0000
114.2900 0.7764
114.3000 0.1907
114.3100 0.0000
114.3200 0.0000
114.3300 0.0000
114.3400 0.0000
114.3500 0.0000
114.3600 1.5878
114.3700 1.5779
114.3800 0.0000
114.3900 0.0000
114.4000 0.0000
114.4100 0.0000
114.4200 0.0000
114.4300 0.0000
114.4400 0.0000
114.4500 0.0000
114.4600 1.0362
114.4700 0.0000
114.4800 0.0000
114.4900 0.7012
114.5000 0.3140
114.5100 0.8569
114.5200 0.1174
114.5300 0.0655
114.5400 1.8557
114.5500 0.0000
114.5600 1.4078
114.5700 1.5171
114.5800 1.0891
114.5900 1.0082
114.6000 0.0000
114.6100 0.0000
114.6200 0.0000
114.6300 0.0117
114.6400 0.9429
114.6500 0.0000
114.6600 1.0316
114.6700 1.6821
114.6800 2.6159
114.6900 0.5018
114.7000 0.0000
114.7100 0.0000
114.7200 0.8247
114.7300 3.0171
114.7400 0.6744
114.7500 0.0000
114.7600 1.2857
114.7700 0.9990
114.7800 0.0000
114.7900 0.0000
114.8000 0.0000
114.8100 0.6986
114.8200 1.0723
114.8300 0.1902
114.8400 1.0396
114.8500 0.0057
114.8600 0.0000
114.8700 1.2457
114.8800 1.1252
114.8900 0.6328
114.9000 2.1296
114.9100 2.9063
114.9200 0.9985
114.9300 0.9300
114.9400 0.1718
114.9500 0.0334
114.9600 0.9828
114.9700 0.0000
114.9800 0.0000
114.9900 0.0000
115.0000 0.0000
115.0100 0.0000
115.0200 0.0000
115.0300 0.0000
115.0400 0.0000
115.0500 0.0000
115.0600 1.0080
115.0700 1.1520
115.0800 1.8264
115.0900 0.3334
115.1000 1.0392
115.1100 0.5304
115.1200 0.0000
115.1300 0.7085
115.1400 0.2594
115.1500 0.0000
115.1600 0.0000
115.1700 0.9738
115.1800 0.0000
115.1900 0.3015
115.2000 0.7090
115.2100 0.9709
115.2200 1.1770
115.2300 0.8470
115.2400 0.0000
115.2500 0.0000
115.2600 0.0000
115.2700 1.0405
115.2800 1.1349
115.2900 0.8243
115.3000 1.3233
115.3100 1.6340
115.3200 0.5177
115.3300 0.4675
115.3400 0.7375
115.3500 0.2951
115.3600 0.0000
115.3700 0.0000
115.3800 0.0000
115.3900 0.0000
115.4000 3.2166
115.4100 1.1037
115.4200 0.6024
115.4300 0.5621
115.4400 0.4349
115.4500 0.9609
115.4600 1.9207
115.4700 0.0000
115.4800 0.9836
115.4900 1.0845
115.5000 0.8716
115.5100 0.3220
115.5200 1.1434
115.5300 1.1702
115.5400 1.5229
115.5500 0.7256
115.5600 0.3161
115.5700 0.0000
115.5800 1.0302
115.5900 0.0000
115.6000 0.9620
115.6100 0.0000
115.6200 0.0000
115.6300 0.9969
115.6400 2.0942
115.6500 1.5097
115.6600 0.3422
115.6700 1.2823
115.6800 0.0575
115.6900 2.7053
115.7000 0.0000
115.7100 0.1989
115.7200 1.3825
115.7300 2.4283
115.7400 1.4117
115.7500 0.4842
115.7600 0.9757
115.7700 2.9778
115.7800 0.0000
115.7900 0.9765
115.8000 1.0090
115.8100 0.9660
115.8200 0.0000
115.8300 0.3409
115.8400 2.0771
115.8500 2.1081
115.8600 1.1152
115.8700 0.3840
115.8800 0.0000
115.8900 1.7811
115.9000 1.2242
115.9100 0.9673
115.9200 0.0000
115.9300 0.0000
115.9400 0.0000
115.9500 2.1031
115.9600 1.0634
115.9700 0.9832
115.9800 0.0000
115.9900 1.0103
116.0000 0.1784
116.0100 1.9519
116.0200 0.0000
116.0300 0.2200
116.0400 1.3752
116.0500 1.7212
116.0600 0.5580
116.0700 0.9694
116.0800 0.6782
116.0900 1.1055
116.1000 2.0654
116.1100 0.1115
116.1200 1.0678
116.1300 1.0546
116.1400 1.7913
116.1500 0.9726
116.1600 1.1826
116.1700 0.9892
116.1800 1.1741
116.1900 3.4716
116.2000 1.3211
116.2100 1.2243
116.2200 0.0000
116.2300 0.0000
116.2400 0.0000
116.2500 0.2962
116.2600 2.0590
116.2700 2.1045
116.2800 1.0815
116.2900 1.4280
116.3000 0.0000
116.3100 2.0430
116.3200 0.0000
116.3300 0.9944
116.3400 2.3625
116.3500 1.6464
116.3600 0.8177
116.3700 2.7620
116.3800 1.5272
116.3900 1.9783
116.4000 1.0090
116.4100 0.0000
116.4200 1.9627
116.4300 0.0034
116.4400 1.1314
116.4500 1.8578
116.4600 0.0000
116.4700 0.0000
116.4800 1.4390
116.4900 1.0773
116.5000 1.4213
116.5100 0.9789
116.5200 0.0000
116.5300 0.9075
116.5400 0.0506
116.5500 0.0000
116.5600 0.9836
116.5700 2.1259
116.5800 0.9883
116.5900 0.0000
116.6000 0.0000
116.6100 0.9658
116.6200 0.0000
116.6300 0.0000
116.6400 0.0000
116.6500 0.0000
116.6600 0.3442
116.6700 2.5705
116.6800 1.2986
116.6900 0.6164
116.7000 0.0000
116.7100 0.9840
116.7200 0.9795
116.7300 1.8339
116.7400 0.1620
116.7500 2.0370
116.7600 0.9739
116.7700 2.2814
116.7800 0.7756
116.7900 0.0000
116.8000 0.0000
116.8100 1.0136
116.8200 1.3678
116.8300 0.6301
116.8400 0.0000
116.8500 1.0024
116.8600 1.0289
116.8700 0.0000
116.8800 0.2385
116.8900 0.7118
116.9000 0.0000
116.9100 1.5525
116.9200 1.1347
116.9300 2.3413
116.9400 0.0000
116.9500 0.0000
116.9600 1.9628
116.9700 0.0000
116.9800 0.0000
116.9900 0.2876
117.0000 1.0998
117.0100 2.1009
117.0200 1.0629
117.0300 1.4742
117.0400 0.3152
117.0500 0.0000
117.0600 0.6304
117.0700 0.9742
117.0800 2.8759
117.0900 1.3166
117.1000 0.8945
117.1100 0.4335
117.1200 1.1168
117.1300 2.4236
117.1400 0.0000
117.1500 0.7892
117.1600 0.1977
117.1700 0.0000
117.1800 0.0000
117.1900 0.0000
117.2000 0.9608
117.2100 0.0000
117.2200 0.0000
117.2300 1.5906
117.2400 0.4850
117.2500 0.0000
117.2600 0.0000
117.2700 1.0771
117.2800 1.9472
117.2900 0.1249
117.3000 1.1301
117.3100 0.8160
117.3200 0.9670
117.3300 1.9442
117.3400 1.0244
117.3500 0.7867
117.3600 2.5172
117.3700 0.0000
117.3800 0.9683
117.3900 2.0002
117.4000 1.0868
117.4100 0.8034
117.4200 0.0000
117.4300 0.9268
117.4400 1.1668
117.4500 0.0000
117.4600 0.9537
117.4700 0.0000
117.4800 1.9558
117.4900 0.0000
117.5000 0.0000
117.5100 0.0000
117.5200 0.0000
117.5300 0.0000
117.5400 0.4630
117.5500 0.4996
117.5600 1.6505
117.5700 0.3227
117.5800 0.9876
117.5900 0.0000
117.6000 0.0000
117.6100 1.1495
117.6200 0.8209
117.6300 0.0000
117.6400 0.9977
117.6500 0.5148
117.6600 0.4765
117.6700 0.0000
117.6800 0.0000
117.6900 0.9523
117.7000 1.9608
117.7100 0.0000
117.7200 0.0000
117.7300 0.0000
117.7400 0.3577
117.7500 1.0843
117.7600 2.1281
117.7700 3.1764
117.7800 2.9072
117.7900 0.5416
117.8000 0.0000
117.8100 1.6791
117.8200 0.6558
117.8300 4.6304
117.8400 0.0000
117.8500 0.0000
117.8600 1.4727
117.8700 2.6440
117.8800 0.8004
117.8900 0.7989
117.9000 1.1043
117.9100 1.1289
117.9200 0.0273
117.9300 0.0000
117.9400 0.2541
117.9500 1.7019
117.9600 0.4439
117.9700 2.1214
117.9800 0.4771
117.9900 0.0000
118.0000 0.0000
118.0100 1.8317
118.0200 0.0926
118.0300 2.0538
118.0400 1.1437
118.0500 1.7538
118.0600 0.0000
118.0700 0.0000
118.0800 1.0614
118.0900 0.0000
118.1000 0.0000
118.1100 0.0000
118.1200 2.8340
118.1300 3.1338
118.1400 0.1424
118.1500 2.9505
118.1600 0.0000
118.1700 1.0571
118.1800 0.0000
118.1900 3.0912
118.2000 0.0000
118.2100 1.9986
118.2200 1.8140
118.2300 2.2067
118.2400 0.0000
118.2500 0.0000
118.2600 0.2737
118.2700 1.7128
118.2800 2.5239
118.2900 2.1862
118.3000 0.4432
118.3100 0.9609
118.3200 0.3218
118.3300 0.9505
118.3400 1.6503
118.3500 0.9974
118.3600 0.0000
118.3700 0.0000
118.3800 1.0011
118.3900 0.9662
118.4000 0.0000
118.4100 0.7007
118.4200 0.3099
118.4300 0.0000
118.4400 0.0000
118.4500 0.1402
118.4600 1.8372
118.4700 0.9389
118.4800 0.0000
118.4900 0.0000
118.5000 0.9747
118.5100 0.0000
118.5200 2.1435
118.5300 0.7862
118.5400 1.8722
118.5500 1.1849
118.5600 1.1051
118.5700 0.8955
118.5800 1.3363
118.5900 1.7708
118.6000 0.0000
118.6100 0.9224
118.6200 0.0000
118.6300 0.0000
118.6400 0.0000
118.6500 1.8838
118.6600 1.0797
118.6700 0.0000
118.6800 0.0000
118.6900 0.3270
118.7000 0.6451
118.7100 0.9868
118.7200 0.0000
118.7300 0.0000
118.7400 0.7786
118.7500 1.1831
118.7600 0.0000
118.7700 2.0010
118.7800 0.0000
118.7900 0.0000
118.8000 0.0000
118.8100 0.9582
118.8200 2.0699
118.8300 0.6441
118.8400 1.2818
118.8500 0.0000
118.8600 1.9195
118.8700 0.0595
118.8800 0.0000
118.8900 0.0000
118.9000 0.0000
118.9100 0.0000
118.9200 0.0000
118.9300 0.0000
118.9400 0.0000
118.9500 0.0000
118.9600 0.8579
118.9700 1.0592
118.9800 2.9387
118.9900 0.1726
119.0000 1.1053
119.0100 0.7072
119.0200 0.0000
119.0300 0.0000
119.0400 1.0815
119.0500 0.6830
119.0600 0.2468
119.0700 0.0000
119.0800 1.0401
119.0900 2.0916
119.1000 1.9402
119.1100 0.0000
119.1200 1.9523
119.1300 0.4830
119.1400 1.0698
119.1500 0.4033
119.1600 0.0000
119.1700 0.9639
119.1800 0.9649
119.1900 0.0569
119.2000 1.2437
119.2100 2.6470
119.2200 0.5439
119.2300 1.1742
119.2400 3.3032
119.2500 1.4193
119.2600 1.2378
119.2700 0.0000
119.2800 1.8942
119.2900 2.0831
119.3000 2.9901
119.3100 0.0000
119.3200 0.0000
119.3300 0.0000
119.3400 0.0000
119.3500 0.5697
119.3600 1.0884
119.3700 0.3348
119.3800 0.9684
119.3900 0.0000
119.4000 0.0000
119.4100 0.0000
119.4200 0.0000
119.4300 0.0000
119.4400 0.0000
119.4500 0.0000
119.4600 0.0000
119.4700 0.0000
119.4800 0.9692
119.4900 0.0000
119.5000 0.9770
119.5100 0.0176
119.5200 0.0000
119.5300 0.2607
119.5400 0.7211
119.5500 1.4243
119.5600 0.5435
119.5700 0.0000
119.5800 0.0000
119.5900 0.0000
119.6000 1.9791
119.6100 0.9921
119.6200 1.2081
119.6300 3.3195
119.6400 5.6917
119.6500 0.8026
119.6600 1.2128
119.6700 0.0000
119.6800 0.0000
119.6900 0.0000
119.7000 0.0000
119.7100 0.0000
119.7200 0.0000
119.7300 0.0000
119.7400 0.2359
119.7500 2.0401
119.7600 1.1139
119.7700 0.5584
119.7800 0.0000
119.7900 2.0057
119.8000 0.0000
119.8100 0.0000
119.8200 1.0248
119.8300 0.0000
119.8400 0.0000
119.8500 0.3009
119.8600 1.1140
119.8700 0.5915
119.8800 0.9899
119.8900 1.9588
119.9000 1.0151
119.9100 0.8467
119.9200 1.1199
119.9300 0.0000
119.9400 0.0000
119.9500 0.0000
119.9600 0.0000
119.9700 0.0000
119.9800 0.0000
119.9900 0.9678
